# Measurement Wed, 01 Mar 2023 - 21:01:45.267 (01:24.313) SN8508 SN8509 Size 4, normal
# No Name, No Comment, No tags
# time	left pressure 1[N/cm²]	left pressure 2[N/cm²]	left pressure 3[N/cm²]	left pressure 4[N/cm²]	left pressure 5[N/cm²]	left pressure 6[N/cm²]	left pressure 7[N/cm²]	left pressure 8[N/cm²]	left pressure 9[N/cm²]	left pressure 10[N/cm²]	left pressure 11[N/cm²]	left pressure 12[N/cm²]	left pressure 13[N/cm²]	left pressure 14[N/cm²]	left pressure 15[N/cm²]	left pressure 16[N/cm²]	left acceleration X[g]	left acceleration Y[g]	left acceleration Z[g]	left angular X[dps]	left angular Y[dps]	left angular Z[dps]	left total force[N]	left center of pressure X[-0.5...+0.5]	left center of pressure Y[-0.5...+0.5]	right pressure 1[N/cm²]	right pressure 2[N/cm²]	right pressure 3[N/cm²]	right pressure 4[N/cm²]	right pressure 5[N/cm²]	right pressure 6[N/cm²]	right pressure 7[N/cm²]	right pressure 8[N/cm²]	right pressure 9[N/cm²]	right pressure 10[N/cm²]	right pressure 11[N/cm²]	right pressure 12[N/cm²]	right pressure 13[N/cm²]	right pressure 14[N/cm²]	right pressure 15[N/cm²]	right pressure 16[N/cm²]	right acceleration X[g]	right acceleration Y[g]	right acceleration Z[g]	right angular X[dps]	right angular Y[dps]	right angular Z[dps]	right total force[N]	right center of pressure X[-0.5...+0.5]	right center of pressure Y[-0.5...+0.5]
0.00	4.25	4.25	5.50	8.00	1.75	4.00	0.25	1.25	0.50	1.00	0.50	0.75	0.75	0.00	0.25	0.50	-0.156738	0.127930	0.979004	-1.330000	1.330000	0.770000	329.00	-0.206642	-0.104942																									
0.01	4.00	4.25	5.25	8.00	2.00	4.00	0.25	1.25	0.50	1.00	0.50	0.75	0.75	0.00	0.25	0.50	-0.150391	0.131836	0.979004	-1.470000	1.400000	0.700000	327.00	-0.204132	-0.106731																									
0.02	4.50	4.50	5.50	7.75	2.00	4.25	0.25	1.25	0.75	1.00	0.50	0.50	0.75	0.25	0.25	0.50	-0.153809	0.126465	0.978027	-1.400000	1.330000	0.770000	339.00	-0.203018	-0.096600																									
0.03	4.50	4.50	5.50	8.25	2.00	4.25	0.25	1.25	0.50	0.75	0.50	0.50	0.75	0.25	0.25	0.50	-0.155762	0.130859	0.982422	-1.540000	1.400000	0.700000	338.00	-0.211455	-0.102914	4.00	3.50	7.50	7.00	2.25	3.00	0.25	0.25	0.50	0.50	0.25	0.25	0.00	0.00	0.00	0.00	-0.157715	0.114258	0.994629	-1.610000	-3.780000	3.990000	289.00	-0.247286	-0.055517
0.04	4.25	4.50	5.50	8.50	1.75	4.25	0.25	1.25	0.50	0.75	0.50	0.75	0.75	0.00	0.25	0.50	-0.152832	0.128418	0.986328	-1.540000	1.540000	0.700000	336.00	-0.211922	-0.109550	4.00	3.75	7.75	7.00	3.00	3.75	0.25	0.25	0.50	0.50	0.25	0.25	0.00	0.00	0.25	0.25	-0.166992	0.114746	0.993652	-1.540000	-3.850000	3.990000	312.00	-0.235874	-0.058691
0.05	4.25	4.25	5.50	8.25	1.75	4.25	0.25	1.25	0.50	0.75	0.50	0.75	0.75	0.25	0.25	0.50	-0.156250	0.132324	0.980469	-1.400000	1.820000	0.630000	334.00	-0.206408	-0.106646	4.00	3.75	7.75	7.00	3.50	4.00	0.00	0.50	0.50	0.50	0.25	0.25	0.00	0.00	0.25	0.25	-0.155762	0.117188	0.988281	-1.470000	-3.850000	3.990000	320.00	-0.234504	-0.065375
0.06	4.00	4.50	5.50	8.25	2.00	4.25	0.25	1.25	0.50	0.75	0.50	0.75	0.75	0.50	0.25	0.50	-0.150391	0.129395	0.976562	-1.680000	1.820000	0.630000	338.00	-0.202158	-0.105635	4.00	3.75	8.75	7.25	3.25	3.75	0.00	0.50	0.50	0.50	0.25	0.25	0.00	0.00	0.00	0.25	-0.162109	0.113281	0.997070	-1.470000	-3.990000	3.920000	325.00	-0.242123	-0.061016
0.07	4.25	4.50	5.50	8.25	2.00	4.25	0.25	1.25	0.50	0.75	0.50	0.50	0.75	0.25	0.00	0.50	-0.150391	0.129395	0.976562	-1.680000	1.820000	0.630000	333.00	-0.214574	-0.104567	4.25	4.00	8.75	7.25	3.50	3.75	0.25	0.25	0.50	0.50	0.25	0.25	0.25	0.00	0.00	0.25	-0.160156	0.114746	0.993164	-1.330000	-4.060000	3.920000	334.00	-0.240058	-0.055339
0.08	4.25	4.50	5.50	8.25	2.00	4.25	0.25	1.25	0.75	0.75	0.75	0.75	0.75	0.25	0.00	0.50	-0.159180	0.128418	0.983887	-1.680000	2.030000	0.630000	341.00	-0.204358	-0.102673	4.25	4.00	8.50	7.25	3.50	3.75	0.00	0.25	0.50	0.50	0.25	0.25	0.00	0.00	0.00	0.25	-0.164062	0.116211	0.991699	-1.330000	-3.990000	4.060000	326.00	-0.245786	-0.057170
0.09	4.50	4.50	5.25	8.25	2.00	4.25	0.25	1.25	0.75	0.75	0.50	0.50	0.75	0.25	0.25	0.50	-0.157227	0.128906	0.981445	-1.680000	1.960000	0.630000	339.00	-0.206914	-0.101029	4.00	3.75	8.50	7.25	3.50	4.00	0.00	0.25	0.50	0.50	0.25	0.25	0.00	0.00	0.00	0.25	-0.163574	0.117676	0.998047	-1.330000	-3.920000	3.990000	324.00	-0.242808	-0.059331
0.10	4.25	4.50	5.50	8.25	2.00	4.25	0.25	1.25	0.50	0.75	0.50	0.50	0.75	0.50	0.25	0.50	-0.156250	0.128906	0.974609	-2.030000	2.030000	0.560000	338.00	-0.206504	-0.102776	4.25	4.00	8.00	7.25	3.50	4.00	0.00	0.25	0.50	0.50	0.25	0.50	0.00	0.00	0.00	0.25	-0.162598	0.112793	0.994141	-1.330000	-3.920000	3.920000	326.00	-0.241396	-0.062876
0.11	4.25	4.25	5.50	8.00	2.00	4.00	0.25	1.25	0.50	1.00	0.75	0.75	0.75	0.50	0.25	0.50	-0.145508	0.126953	0.979980	-1.820000	1.890000	0.630000	338.00	-0.195816	-0.100519	4.50	4.00	8.50	7.25	3.50	4.00	0.00	0.50	0.50	0.50	0.25	0.25	0.25	0.00	0.00	0.25	-0.167969	0.112793	1.000977	-1.330000	-3.920000	3.990000	336.00	-0.241330	-0.063451
0.12	4.00	4.25	5.50	8.00	2.00	4.25	0.25	1.25	0.50	1.00	0.50	0.75	0.75	0.50	0.25	0.50	-0.148926	0.127441	0.978516	-1.890000	1.820000	0.700000	336.00	-0.197038	-0.103163	4.25	4.00	8.50	7.25	3.25	4.00	0.00	0.50	0.50	0.50	0.25	0.25	0.25	0.00	0.00	0.25	-0.167969	0.112793	1.000977	-1.330000	-3.920000	3.990000	332.00	-0.241052	-0.065626
0.13	4.25	4.50	5.75	8.00	1.75	4.25	0.25	1.25	0.50	0.75	0.50	0.50	0.75	0.25	0.00	0.50	-0.152344	0.130859	0.972168	-1.960000	1.750000	0.700000	331.00	-0.215091	-0.103418	4.25	4.00	8.00	7.25	3.00	4.00	0.00	0.50	0.50	0.50	0.25	0.25	0.25	0.00	0.00	0.00	-0.162109	0.114258	0.996094	-1.190000	-3.850000	3.850000	323.00	-0.243895	-0.068105
0.14	4.25	4.25	5.75	8.00	1.75	4.00	0.25	1.25	0.50	1.00	0.50	0.50	0.75	0.25	0.00	0.50	-0.151855	0.129395	0.980957	-1.680000	1.750000	0.770000	329.00	-0.210980	-0.100524	4.00	4.00	8.00	7.75	3.00	3.75	0.25	0.50	0.50	0.50	0.25	0.25	0.25	0.00	0.00	0.00	-0.162109	0.111328	0.991699	-1.330000	-3.990000	3.990000	326.00	-0.240646	-0.066919
0.15	4.00	4.50	5.50	8.25	2.00	4.00	0.25	1.25	0.50	1.00	0.75	0.50	0.75	0.25	0.00	0.50	-0.157227	0.127930	0.981445	-1.890000	2.030000	0.770000	333.00	-0.207289	-0.103706	4.50	4.50	9.00	7.75	3.00	3.75	0.25	0.50	0.50	0.50	0.25	0.25	0.25	0.00	0.25	0.25	-0.161621	0.118164	0.995117	-1.330000	-4.060000	3.990000	349.00	-0.239069	-0.062152
0.16	4.00	4.50	5.50	8.25	2.00	4.25	0.00	1.25	0.75	1.00	0.75	0.50	0.75	0.25	0.00	0.50	-0.155762	0.128418	0.975586	-2.030000	1.890000	0.770000	335.00	-0.205732	-0.105186	4.75	4.25	9.00	7.75	3.50	3.75	0.00	0.50	0.50	0.50	0.25	0.25	0.00	0.00	0.00	0.25	-0.162598	0.114746	0.999023	-1.260000	-4.060000	3.990000	347.00	-0.247528	-0.059191
0.17	4.00	4.50	5.50	8.25	2.00	4.00	0.25	1.25	0.75	1.00	0.50	0.75	0.75	0.25	0.00	0.50	-0.156738	0.127441	0.979980	-1.820000	1.960000	0.700000	336.00	-0.203261	-0.101631	4.50	4.25	8.75	7.75	3.50	3.75	0.25	0.25	0.50	0.50	0.25	0.25	0.00	0.00	0.00	0.25	-0.164062	0.116211	0.995117	-1.330000	-4.130000	4.060000	342.00	-0.245364	-0.055002
0.18	4.25	4.50	5.50	8.25	1.75	4.00	0.25	1.00	0.75	1.00	0.50	0.50	0.75	0.25	0.00	0.50	-0.153809	0.130371	0.979492	-1.960000	2.030000	0.630000	330.00	-0.210308	-0.096892	4.25	4.00	8.50	7.25	3.50	4.25	0.25	0.50	0.50	0.50	0.25	0.25	0.00	0.25	0.00	0.25	-0.164551	0.123047	0.990723	-1.260000	-4.060000	4.060000	340.00	-0.234908	-0.059326
0.19	4.50	4.75	5.50	8.25	2.00	4.00	0.25	1.25	0.75	0.75	0.50	0.50	0.75	0.25	0.00	0.50	-0.155273	0.132324	0.979980	-2.100000	2.100000	0.700000	338.00	-0.213444	-0.098869	4.25	4.00	8.50	7.75	3.50	4.25	0.00	0.50	0.50	0.50	0.25	0.25	0.00	0.00	0.00	0.00	-0.158203	0.119141	0.996094	-1.260000	-4.060000	4.060000	338.00	-0.244869	-0.065320
0.20	4.25	4.75	5.50	8.25	2.00	4.25	0.25	1.25	0.75	0.75	0.50	0.75	0.75	0.00	0.00	0.50	-0.154297	0.126953	0.979004	-1.750000	2.030000	0.700000	339.00	-0.212268	-0.104588	4.00	4.25	8.50	7.75	3.50	4.25	0.25	0.50	0.50	0.50	0.25	0.50	0.00	0.00	0.00	0.25	-0.162109	0.115723	0.999512	-1.260000	-4.130000	3.990000	345.00	-0.236184	-0.066528
0.21	4.25	4.75	5.50	8.25	2.00	4.25	0.25	1.25	0.75	0.75	0.50	1.00	0.75	0.25	0.25	0.50	-0.154297	0.126953	0.979004	-1.750000	2.030000	0.700000	346.00	-0.201474	-0.104171	4.25	4.50	8.00	7.75	3.50	4.25	0.25	0.25	0.50	0.50	0.25	0.25	0.00	0.00	0.00	0.25	-0.163574	0.114258	0.994141	-1.190000	-4.130000	3.920000	339.00	-0.243501	-0.063299
0.22	4.25	4.75	5.50	8.00	2.00	4.25	0.25	1.25	0.50	0.75	0.50	1.00	0.75	0.25	0.25	0.50	-0.152344	0.128418	0.979492	-1.820000	2.030000	0.560000	340.00	-0.204866	-0.106610	4.25	4.50	8.00	7.75	3.75	4.25	0.25	0.25	0.50	0.50	0.25	0.50	0.00	0.00	0.00	0.25	-0.162598	0.114258	1.000488	-1.050000	-4.130000	3.920000	344.00	-0.239460	-0.064020
0.23	4.25	4.50	5.50	8.00	2.00	4.25	0.00	1.25	0.50	1.00	0.50	0.75	0.75	0.25	0.00	0.50	-0.154297	0.126953	0.977539	-1.820000	2.100000	0.630000	332.00	-0.210783	-0.107481	4.75	4.25	8.50	7.75	3.75	4.75	0.25	0.25	0.50	0.50	0.25	0.25	0.00	0.00	0.25	0.25	-0.164062	0.111328	0.995605	-1.120000	-4.200000	3.920000	356.00	-0.238401	-0.060395
0.24	4.25	4.50	5.25	8.25	2.00	4.25	0.00	1.25	0.75	1.00	0.50	0.75	0.75	0.25	0.00	0.50	-0.156738	0.126465	0.979004	-1.820000	2.100000	0.630000	335.00	-0.206770	-0.106449	4.75	4.00	8.50	7.75	3.50	4.75	0.25	0.25	0.50	0.50	0.25	0.50	0.00	0.00	0.00	0.25	-0.162598	0.112305	0.996094	-1.120000	-4.200000	3.920000	352.00	-0.239503	-0.062096
0.25	4.25	4.50	5.25	8.00	1.75	4.00	0.25	1.25	0.50	1.00	0.50	0.75	0.75	0.50	0.25	0.50	-0.156738	0.126465	0.979004	-1.820000	2.100000	0.630000	333.00	-0.200248	-0.103502	4.50	4.00	8.00	7.75	3.50	4.50	0.25	0.50	0.50	0.50	0.25	0.50	0.00	0.00	0.00	0.25	-0.162109	0.114258	0.994629	-1.050000	-4.130000	3.920000	345.00	-0.236338	-0.067307
0.26	4.25	4.25	5.25	7.75	1.75	4.00	0.25	1.25	0.50	0.75	0.50	0.50	0.75	0.50	0.25	0.50	-0.151855	0.126953	0.986816	-1.680000	1.960000	0.630000	323.00	-0.204460	-0.101950	4.50	4.00	8.00	8.25	3.50	4.50	0.25	0.50	0.50	0.50	0.25	0.25	0.00	0.00	0.00	0.25	-0.161133	0.113770	0.995117	-0.980000	-4.060000	3.920000	348.00	-0.240166	-0.067995
0.27	4.25	4.25	5.50	7.75	1.75	4.25	0.25	1.25	0.50	0.75	0.50	0.50	0.75	0.25	0.25	0.50	-0.153809	0.131348	0.981445	-1.750000	2.030000	0.630000	326.00	-0.208232	-0.103431	4.50	4.00	8.75	8.25	3.50	4.50	0.00	0.75	0.50	0.50	0.25	0.25	0.00	0.00	0.00	0.25	-0.159668	0.119141	0.993164	-0.980000	-4.060000	4.060000	356.00	-0.241626	-0.070818
0.28	4.25	4.25	5.50	7.75	1.75	4.25	0.25	1.00	0.75	1.00	0.50	0.50	0.75	0.25	0.25	0.50	-0.154297	0.129883	0.984375	-1.820000	1.960000	0.630000	328.00	-0.202818	-0.095717	5.00	4.00	8.75	8.25	3.50	4.25	0.25	0.75	0.50	0.50	0.25	0.25	0.00	0.00	0.00	0.25	-0.165039	0.117188	0.992676	-1.120000	-4.060000	3.990000	361.00	-0.241254	-0.064048
0.29	4.25	4.25	5.50	7.75	1.75	4.25	0.25	1.25	0.75	0.75	0.50	0.50	0.75	0.00	0.25	0.50	-0.155762	0.130859	0.979980	-1.890000	1.960000	0.630000	327.00	-0.207687	-0.101653	5.00	4.25	8.50	7.75	3.75	4.25	0.25	0.50	0.50	0.50	0.25	0.25	0.25	0.00	0.00	0.00	-0.161621	0.113770	0.995605	-1.120000	-4.060000	4.060000	356.00	-0.242695	-0.060748
0.30	4.00	4.25	5.50	7.75	1.75	4.00	0.25	1.25	0.75	0.50	0.50	0.50	0.75	0.00	0.00	0.50	-0.151367	0.130859	0.985840	-1.890000	2.030000	0.630000	318.00	-0.214694	-0.103268	5.00	4.25	9.00	7.75	3.50	4.25	0.25	0.50	0.50	0.50	0.50	0.25	0.25	0.00	0.00	0.00	-0.157715	0.117188	0.995117	-1.120000	-4.130000	3.990000	361.00	-0.240724	-0.059840
0.31	4.25	4.25	5.25	7.75	1.75	4.00	0.00	1.00	0.50	0.75	0.25	0.50	0.75	0.25	0.25	0.50	-0.151367	0.126465	0.982910	-1.960000	2.170000	0.560000	312.00	-0.216953	-0.104214	4.75	4.25	8.75	8.25	3.50	4.25	0.25	0.50	0.50	0.50	0.25	0.25	0.25	0.00	0.00	0.25	-0.164551	0.116211	0.998047	-1.120000	-4.130000	3.990000	360.00	-0.241150	-0.064821
0.32	4.25	4.25	5.50	7.50	1.75	4.25	0.00	1.00	0.75	0.75	0.50	0.50	0.75	0.25	0.25	0.50	-0.154785	0.127930	0.982910	-1.750000	1.890000	0.770000	320.00	-0.208537	-0.099579	4.75	4.00	8.75	7.75	3.50	4.25	0.00	0.50	0.50	0.50	0.25	0.50	0.50	0.00	0.25	0.25	-0.161133	0.119141	0.996582	-1.190000	-4.200000	4.060000	356.00	-0.232850	-0.068884
0.33	4.25	4.25	5.50	7.75	2.00	4.25	0.00	1.25	0.75	0.75	0.50	0.50	0.75	0.25	0.00	0.50	-0.154297	0.127441	0.974121	-2.030000	2.030000	0.700000	326.00	-0.210974	-0.102550	5.00	4.00	8.75	7.75	3.50	4.25	0.25	0.50	0.50	0.50	0.50	0.50	0.25	0.00	0.25	0.25	-0.159180	0.118164	0.999023	-1.260000	-4.060000	3.920000	362.00	-0.230132	-0.062870
0.34	4.25	4.25	5.50	8.00	2.00	4.25	0.25	1.25	0.75	0.75	0.50	0.50	0.75	0.25	0.00	0.50	-0.150879	0.124512	0.981445	-1.750000	1.960000	0.630000	332.00	-0.208493	-0.099849	5.00	4.00	8.75	8.25	3.75	4.25	0.25	0.50	0.50	0.50	0.50	0.25	0.00	0.00	0.25	0.25	-0.163086	0.119629	0.992676	-1.330000	-4.060000	3.990000	365.00	-0.235284	-0.060525
0.35	4.25	4.25	5.25	8.00	2.00	4.00	0.25	1.25	0.50	0.75	0.50	0.50	0.75	0.50	0.25	0.50	-0.152832	0.126953	0.974609	-1.610000	1.960000	0.700000	328.00	-0.204489	-0.101641	4.75	4.00	8.75	8.25	4.00	4.25	0.25	0.50	0.50	0.25	0.25	0.25	0.25	0.00	0.25	0.25	-0.161133	0.122070	0.996582	-1.260000	-4.060000	4.060000	362.00	-0.237366	-0.063444
0.36	4.25	4.25	5.25	7.75	1.75	4.00	0.25	1.25	0.75	0.75	0.50	0.50	0.75	0.25	0.00	0.50	-0.156738	0.125488	0.979004	-1.890000	1.890000	0.700000	322.00	-0.208508	-0.100295	4.75	4.00	8.75	8.25	3.75	4.25	0.00	0.50	0.50	0.25	0.25	0.25	0.25	0.00	0.00	0.25	-0.158691	0.116211	0.995605	-1.400000	-3.990000	4.060000	354.00	-0.245685	-0.067215
0.37	4.00	4.25	5.25	7.75	1.75	4.00	0.00	1.00	0.75	0.75	0.50	0.50	0.75	0.50	0.00	0.50	-0.156738	0.125488	0.979004	-1.890000	1.890000	0.700000	314.00	-0.208556	-0.100722	4.50	4.00	8.75	8.25	3.75	4.50	0.25	0.50	0.50	0.50	0.25	0.25	0.25	0.00	0.00	0.25	-0.159180	0.116699	0.995117	-1.400000	-4.060000	4.060000	360.00	-0.237635	-0.065928
0.38	4.25	4.25	5.25	7.50	1.75	4.00	0.25	1.25	0.75	0.75	0.50	0.75	0.75	0.50	0.00	0.50	-0.157227	0.128418	0.986328	-2.100000	1.960000	0.630000	324.00	-0.201036	-0.099108	4.75	4.00	8.50	8.25	3.50	4.50	0.25	0.50	0.50	0.50	0.25	0.25	0.25	0.00	0.25	0.25	-0.158203	0.116211	0.994629	-1.400000	-4.130000	4.060000	360.00	-0.234984	-0.066877
0.39	4.00	4.50	5.25	7.75	1.75	4.00	0.25	1.25	0.75	0.75	0.50	0.75	0.75	0.25	0.25	0.50	-0.159668	0.128418	0.982910	-2.100000	2.100000	0.630000	326.00	-0.200795	-0.103546	5.25	4.00	8.50	8.25	4.00	4.50	0.25	0.75	0.50	0.50	0.25	0.50	0.25	0.00	0.00	0.25	-0.162598	0.118652	1.001953	-1.260000	-4.200000	4.060000	373.00	-0.234853	-0.067329
0.40	4.25	4.50	5.25	7.75	1.75	4.00	0.25	1.25	0.75	1.00	0.50	0.50	0.75	0.00	0.25	0.50	-0.155762	0.130371	0.977539	-2.030000	2.100000	0.770000	327.00	-0.205742	-0.101052	5.25	4.00	8.50	8.25	4.00	4.25	0.25	0.50	0.50	0.50	0.50	0.50	0.25	0.00	0.00	0.25	-0.161621	0.114258	0.997070	-1.260000	-3.990000	3.990000	369.00	-0.234517	-0.063206
0.41	4.50	4.50	5.50	7.75	1.75	4.00	0.25	1.00	0.50	0.75	0.50	0.50	0.75	0.25	0.25	0.50	-0.149414	0.124023	0.979492	-2.100000	2.100000	0.700000	325.00	-0.213531	-0.097905	5.00	4.25	8.75	7.75	4.00	4.50	0.25	0.50	0.50	0.50	0.25	0.50	0.25	0.00	0.00	0.25	-0.161621	0.114258	0.997070	-1.260000	-3.990000	3.990000	367.00	-0.236410	-0.062713
0.42	4.50	4.50	5.50	7.50	1.75	4.00	0.25	1.00	0.50	0.75	0.25	0.50	0.75	0.50	0.25	0.50	-0.149414	0.124023	0.979492	-2.100000	2.100000	0.700000	322.00	-0.212425	-0.095109	4.75	4.25	8.75	8.25	4.00	4.50	0.25	0.75	0.50	0.50	0.25	0.50	0.25	0.00	0.25	0.25	-0.156250	0.119141	0.995605	-1.260000	-3.990000	4.060000	375.00	-0.229825	-0.069136
0.43	4.25	4.25	5.25	7.50	1.75	4.00	0.00	0.75	0.50	0.50	0.00	0.50	0.75	0.25	0.25	0.50	-0.154785	0.130371	0.981445	-1.890000	2.030000	0.700000	301.00	-0.225862	-0.101122	5.25	4.50	8.75	8.25	3.75	4.50	0.25	0.75	0.50	0.50	0.25	0.50	0.25	0.00	0.25	0.25	-0.166016	0.119629	0.996582	-1.260000	-3.990000	4.200000	380.00	-0.233716	-0.068317
0.44	4.00	4.25	5.25	7.50	1.75	4.00	0.25	0.75	0.50	0.75	0.50	0.50	0.50	0.25	0.25	0.50	-0.154297	0.131348	0.980957	-1.960000	2.100000	0.700000	307.00	-0.212942	-0.095456	5.25	4.75	8.75	8.25	3.75	4.50	0.25	0.50	0.50	0.50	0.25	0.25	0.25	0.00	0.25	0.25	-0.158691	0.119629	0.991211	-1.190000	-3.990000	4.130000	376.00	-0.239630	-0.064414
0.45	4.00	4.25	5.25	8.00	1.75	4.00	0.25	1.00	0.50	0.75	0.50	0.50	0.75	0.25	0.00	0.50	-0.158203	0.128418	0.983398	-1.960000	2.100000	0.700000	315.00	-0.214248	-0.103197	5.00	5.00	8.75	8.25	3.50	4.50	0.25	0.75	0.50	0.50	0.25	0.25	0.25	0.00	0.00	0.25	-0.154297	0.119141	0.998047	-1.330000	-4.270000	4.200000	374.00	-0.242420	-0.069853
0.46	4.00	4.25	5.25	8.00	1.75	4.00	0.25	0.75	0.50	0.75	0.50	0.50	0.75	0.25	0.00	0.50	-0.154297	0.128906	0.977539	-1.820000	2.100000	0.630000	312.00	-0.216498	-0.099981	4.75	4.75	8.75	8.25	4.00	4.50	0.25	0.50	0.50	0.50	0.25	0.25	0.25	0.00	0.25	0.25	-0.159668	0.114746	0.998535	-1.190000	-4.200000	4.270000	374.00	-0.236788	-0.065764
0.47	4.00	4.25	5.25	8.00	1.75	4.00	0.25	0.75	0.50	1.00	0.50	0.50	0.75	0.25	0.25	0.50	-0.158203	0.129883	0.975098	-1.820000	2.030000	0.700000	317.00	-0.208312	-0.098615	4.50	4.25	8.75	8.25	4.00	4.25	0.25	0.50	0.50	0.50	0.25	0.25	0.25	0.00	0.25	0.25	-0.160645	0.115234	0.992188	-1.120000	-4.200000	4.270000	365.00	-0.234207	-0.064325
0.48	4.25	4.25	5.25	8.00	1.75	4.00	0.25	0.75	0.75	0.75	0.50	0.50	0.50	0.50	0.25	0.50	-0.156250	0.128418	0.978516	-1.610000	1.890000	0.840000	320.00	-0.207309	-0.090845	4.75	4.50	8.75	7.75	3.75	4.25	0.25	0.75	0.50	0.50	0.25	0.25	0.00	0.00	0.00	0.25	-0.158691	0.119629	0.996094	-1.120000	-3.990000	4.410000	361.00	-0.240786	-0.063265
0.49	4.25	4.25	5.25	7.75	1.75	4.00	0.25	1.00	0.75	0.75	0.50	0.50	0.50	0.25	0.25	0.50	-0.154785	0.128906	0.976074	-1.750000	1.960000	0.700000	319.00	-0.208348	-0.094717	5.00	4.50	8.75	8.25	3.75	4.25	0.25	0.75	0.50	0.50	0.25	0.25	0.00	0.00	0.00	0.25	-0.160156	0.117188	0.994141	-1.330000	-4.060000	4.270000	368.00	-0.242469	-0.064361
0.50	4.25	4.25	5.25	7.75	1.75	4.00	0.25	0.75	0.50	0.75	0.50	0.50	0.50	0.25	0.00	0.50	-0.159668	0.127930	0.984375	-1.750000	1.960000	0.700000	310.00	-0.219834	-0.095046	5.00	4.50	8.75	8.25	3.75	4.25	0.25	0.75	0.50	0.50	0.25	0.50	0.00	0.00	0.00	0.25	-0.157227	0.119141	0.999512	-1.330000	-4.060000	4.340000	370.00	-0.239527	-0.065867
0.51	4.25	4.25	5.25	7.75	1.75	4.00	0.25	1.00	0.25	0.75	0.50	0.75	0.50	0.25	0.00	0.50	-0.151367	0.130371	0.977539	-1.610000	1.750000	0.770000	313.00	-0.218775	-0.103427	5.00	4.25	8.75	8.25	3.75	4.50	0.25	0.50	0.50	0.50	0.25	0.50	0.00	0.00	0.00	0.25	-0.158691	0.120605	0.996582	-1.190000	-3.850000	4.270000	367.00	-0.240071	-0.063610
0.52	4.25	4.25	5.25	7.50	1.50	4.00	0.00	0.75	0.50	0.75	0.50	0.50	0.50	0.25	0.00	0.50	-0.160156	0.132812	0.984375	-1.820000	1.820000	0.840000	301.00	-0.223530	-0.099174	5.00	4.25	8.75	8.75	3.75	4.50	0.25	0.50	0.50	0.50	0.25	0.50	0.25	0.00	0.00	0.25	-0.154297	0.120117	0.994629	-1.260000	-3.850000	4.200000	374.00	-0.238527	-0.067892
0.53	4.25	4.25	5.25	7.75	1.75	3.75	0.25	0.75	0.75	0.75	0.50	0.50	0.50	0.25	0.00	0.50	-0.157227	0.127441	0.981445	-1.960000	1.890000	0.630000	310.00	-0.215783	-0.090058	5.00	4.50	8.75	8.75	3.50	4.50	0.25	0.75	0.50	0.50	0.25	0.50	0.00	0.00	0.00	0.25	-0.162109	0.116699	0.995117	-1.330000	-3.920000	4.130000	375.00	-0.240355	-0.070215
0.54	4.00	4.25	5.25	7.75	1.75	3.75	0.25	1.00	0.50	0.50	0.50	0.50	0.50	0.00	0.00	0.50	-0.155273	0.124512	0.980957	-1.890000	1.890000	0.700000	304.00	-0.224247	-0.101564	5.25	4.25	9.00	8.75	3.75	4.50	0.25	0.75	0.50	0.50	0.25	0.50	0.25	0.00	0.00	0.25	-0.159180	0.120117	0.997559	-1.330000	-4.060000	4.270000	383.00	-0.237671	-0.068693
0.55	4.00	4.25	5.25	8.00	1.75	3.75	0.25	0.75	0.50	0.50	0.50	0.50	0.50	0.25	0.00	0.50	-0.153320	0.126953	0.982422	-1.890000	1.820000	0.700000	305.00	-0.223107	-0.097484	5.00	4.75	9.00	8.75	3.75	4.50	0.25	0.50	0.50	0.50	0.25	0.25	0.50	0.00	0.00	0.25	-0.162109	0.113770	0.992188	-1.400000	-4.060000	4.270000	381.00	-0.241378	-0.068543
0.56	4.00	4.25	5.25	7.75	1.50	4.25	0.25	0.50	0.75	1.00	0.50	0.75	0.75	0.50	0.00	0.50	-0.158691	0.128906	0.981934	-1.820000	1.750000	0.700000	316.00	-0.203333	-0.093415	5.25	4.75	8.75	8.75	4.00	4.50	0.25	0.75	0.50	0.50	0.25	0.50	0.50	0.00	0.00	0.25	-0.161621	0.121582	0.998047	-1.470000	-4.060000	4.270000	389.00	-0.236613	-0.071960
0.57	4.25	4.25	5.25	7.50	1.75	4.25	0.00	0.75	0.75	0.50	0.50	0.50	0.75	0.25	0.00	0.50	-0.158691	0.128906	0.981934	-1.820000	1.750000	0.700000	309.00	-0.218544	-0.099245	5.25	4.75	8.75	8.75	4.25	4.50	0.25	0.75	0.50	0.50	0.25	0.50	0.25	0.00	0.25	0.25	-0.159180	0.117188	0.997070	-1.470000	-3.920000	4.060000	392.00	-0.233998	-0.069185
0.58	4.00	4.25	5.25	7.50	1.75	4.00	0.25	0.75	0.75	0.25	0.50	0.50	0.50	0.25	0.00	0.50	-0.153809	0.127441	0.978027	-1.820000	1.750000	0.700000	303.00	-0.220362	-0.094411	5.25	4.75	9.00	8.75	4.00	4.50	0.25	0.75	0.50	0.50	0.25	0.25	0.25	0.00	0.00	0.25	-0.163086	0.116699	0.998047	-1.470000	-3.990000	4.060000	387.00	-0.241674	-0.067494
0.59	4.25	4.25	5.25	7.50	1.75	4.00	0.25	0.75	0.75	0.75	0.50	0.50	0.00	0.50	0.25	0.50	-0.153809	0.127441	0.978027	-1.820000	1.750000	0.700000	311.00	-0.210849	-0.083920	5.25	4.75	9.00	8.75	3.75	4.75	0.25	0.75	0.50	0.50	0.25	0.50	0.00	0.00	0.00	0.25	-0.160156	0.115234	0.993652	-1.540000	-3.920000	4.060000	387.00	-0.241162	-0.069040
0.60	4.50	4.25	5.25	7.50	2.00	4.00	0.00	0.75	0.75	0.75	0.50	0.50	0.50	0.25	0.25	0.50	-0.156738	0.125977	0.978027	-1.820000	1.890000	0.630000	314.00	-0.213893	-0.091351	5.00	4.75	9.00	8.75	4.25	4.75	0.00	0.75	0.50	0.50	0.25	0.50	0.25	0.00	0.00	0.25	-0.160156	0.117676	0.995605	-1.470000	-3.850000	3.990000	389.00	-0.239454	-0.073249
0.61	4.25	4.25	5.25	7.50	2.00	4.00	0.00	0.75	0.50	0.75	0.50	0.50	0.75	0.25	0.00	0.50	-0.152832	0.128906	0.981934	-1.610000	1.890000	0.700000	308.00	-0.219389	-0.098904	5.00	4.50	9.00	8.75	4.25	4.75	0.25	0.75	0.50	0.50	0.25	0.50	0.25	0.00	0.00	0.25	-0.153320	0.122559	0.994629	-1.470000	-3.850000	3.850000	390.00	-0.235639	-0.069924
0.62	4.50	4.25	5.25	7.25	1.75	4.00	0.25	0.75	0.50	0.75	0.50	0.50	0.50	0.25	0.00	0.50	-0.153809	0.127930	0.978516	-1.750000	1.960000	0.630000	307.00	-0.220142	-0.091355	4.75	4.25	9.00	8.75	4.00	4.75	0.25	0.75	0.50	0.50	0.25	0.50	0.50	0.00	0.25	0.25	-0.162598	0.119141	0.996094	-1.400000	-3.780000	3.920000	387.00	-0.228254	-0.073438
0.63	4.50	4.25	5.25	7.25	2.00	4.00	0.25	0.75	0.50	0.75	0.50	0.50	0.50	0.25	0.00	0.25	-0.151367	0.126465	0.978027	-1.680000	1.960000	0.630000	308.00	-0.221721	-0.089213	5.00	4.25	9.00	8.75	4.25	4.75	0.25	0.75	0.50	0.50	0.25	0.50	0.25	0.00	0.25	0.25	-0.165039	0.113281	0.992188	-1.470000	-3.920000	3.990000	390.00	-0.230685	-0.069481
0.64	4.50	4.25	5.25	7.25	1.75	4.00	0.25	0.75	0.75	0.75	0.50	0.50	0.50	0.25	0.00	0.25	-0.156738	0.118652	0.984863	-1.820000	1.820000	0.700000	309.00	-0.217873	-0.086914	5.00	4.25	8.75	8.75	4.25	4.75	0.25	0.50	0.50	0.50	0.25	0.25	0.25	0.00	0.00	0.25	-0.157227	0.116211	0.994629	-1.470000	-3.920000	3.990000	379.00	-0.239309	-0.066077
0.65	4.25	4.25	5.25	7.25	1.75	4.00	0.25	0.75	0.50	0.75	0.50	0.75	0.25	0.25	0.25	0.50	-0.155762	0.132324	0.984375	-1.890000	2.030000	0.700000	308.00	-0.212967	-0.092024	4.75	4.50	8.75	8.75	4.25	4.50	0.25	0.75	0.50	0.50	0.25	0.50	0.25	0.00	0.00	0.25	-0.155273	0.117188	0.992676	-1.400000	-3.990000	3.920000	383.00	-0.234945	-0.070773
0.66	4.25	4.25	5.25	7.25	1.75	4.00	0.25	0.75	0.50	0.50	0.75	0.75	0.50	0.50	0.25	0.50	-0.155273	0.130859	0.974121	-1.610000	1.820000	0.770000	312.00	-0.206690	-0.094073	4.75	4.50	8.75	8.75	4.00	4.75	0.00	0.50	0.50	0.50	0.25	0.50	0.50	0.00	0.00	0.25	-0.160156	0.122070	0.996094	-1.400000	-4.060000	3.920000	378.00	-0.237954	-0.074985
0.67	4.50	4.25	5.25	7.50	1.75	4.00	0.00	0.75	0.75	0.50	0.50	0.50	0.75	0.50	0.25	0.50	-0.152832	0.126465	0.978027	-1.750000	1.820000	0.700000	313.00	-0.211708	-0.094435	5.25	4.25	9.00	8.75	3.75	4.50	0.00	0.75	0.50	0.50	0.50	0.25	0.25	0.00	0.25	0.25	-0.154785	0.121094	0.998535	-1.470000	-3.990000	3.920000	382.00	-0.236412	-0.070482
0.68	4.50	4.25	5.25	7.50	1.75	4.00	0.00	0.75	0.75	1.00	0.50	0.50	0.50	0.25	0.00	0.50	-0.158203	0.128418	0.979492	-1.680000	1.820000	0.700000	312.00	-0.215953	-0.091468	5.50	4.25	9.00	8.75	3.75	4.50	0.25	0.75	0.50	0.50	0.25	0.25	0.25	0.00	0.25	0.25	-0.154297	0.117676	0.993164	-1.540000	-3.990000	3.780000	385.00	-0.237445	-0.066264
0.69	4.25	4.25	5.25	7.50	1.75	4.00	0.00	0.75	0.75	0.75	0.75	0.50	0.50	0.00	0.00	0.50	-0.152344	0.124023	0.976074	-1.820000	1.820000	0.770000	307.00	-0.218593	-0.096114	5.25	4.75	9.00	8.75	3.75	4.50	0.00	0.75	0.50	0.50	0.25	0.25	0.25	0.00	0.25	0.25	-0.154297	0.117676	0.993164	-1.540000	-3.990000	3.780000	383.00	-0.241277	-0.071249
0.70	4.25	4.25	5.25	7.25	1.50	4.00	0.00	0.75	0.75	0.75	0.50	0.50	0.25	0.25	0.00	0.50	-0.151367	0.123047	0.979980	-1.610000	1.750000	0.770000	300.00	-0.220818	-0.091983	5.00	4.75	9.00	8.75	3.75	4.50	0.25	0.75	0.50	0.50	0.25	0.50	0.25	0.00	0.00	0.25	-0.158691	0.114746	0.993164	-1.540000	-3.710000	3.920000	385.00	-0.238610	-0.070852
0.71	4.00	4.25	5.25	7.50	1.75	4.00	0.25	0.75	0.75	0.75	0.50	0.50	0.25	0.25	0.00	0.50	-0.153320	0.125000	0.981934	-1.750000	1.820000	0.630000	306.00	-0.215738	-0.089556	4.75	4.50	8.75	8.25	3.75	4.50	0.25	0.50	0.50	0.50	0.25	0.25	0.25	0.00	0.00	0.25	-0.157227	0.125977	0.994141	-1.610000	-3.640000	3.850000	367.00	-0.240760	-0.065950
0.72	4.25	4.25	5.25	7.50	2.00	4.00	0.25	1.00	0.75	0.75	0.50	0.50	0.50	0.50	0.00	0.50	-0.155273	0.122559	0.980957	-1.610000	1.750000	0.630000	318.00	-0.207929	-0.090884	4.50	4.50	8.75	8.25	3.75	4.75	0.00	0.75	0.50	0.50	0.25	0.25	0.25	0.00	0.25	0.25	-0.161133	0.113770	0.992676	-1.540000	-3.570000	3.710000	369.00	-0.235763	-0.074554
0.73	4.25	4.25	5.25	7.50	2.00	4.00	0.25	1.00	0.75	0.75	0.50	0.50	0.50	0.50	0.00	0.50	-0.155273	0.122559	0.980957	-1.610000	1.750000	0.630000	318.00	-0.207929	-0.090884	4.50	4.50	8.75	8.75	3.75	4.50	0.00	0.75	0.50	0.50	0.00	0.50	0.50	0.00	0.25	0.25	-0.158203	0.120605	0.992676	-1.680000	-3.640000	3.780000	374.00	-0.234938	-0.078480
0.74	4.00	4.25	5.25	7.75	2.00	4.00	0.25	0.75	0.50	0.75	0.50	0.50	0.50	0.25	0.25	0.50	-0.152344	0.127930	0.979980	-1.680000	1.820000	0.630000	312.00	-0.212837	-0.095235	4.50	4.75	8.75	8.75	3.75	4.75	0.25	0.50	0.50	0.50	0.25	0.25	0.25	0.00	0.25	0.25	-0.157227	0.125000	0.998047	-1.610000	-3.640000	3.710000	376.00	-0.236602	-0.071201
0.75	4.00	4.25	5.00	7.50	1.75	4.00	0.25	0.75	0.75	0.75	0.50	0.50	0.50	0.25	0.25	0.50	-0.153320	0.130371	0.973633	-1.820000	1.750000	0.630000	308.00	-0.207943	-0.093393	5.25	4.50	8.75	8.75	3.75	4.75	0.25	0.50	0.50	0.50	0.25	0.50	0.25	0.00	0.00	0.00	-0.162109	0.114258	0.995605	-1.540000	-3.640000	3.780000	380.00	-0.241943	-0.067870
0.76	4.25	4.25	5.25	7.50	1.75	4.00	0.25	1.00	0.75	1.00	0.50	0.75	0.25	0.50	0.25	0.50	-0.154297	0.124512	0.984375	-1.820000	1.820000	0.770000	321.00	-0.199835	-0.090098	5.25	4.75	8.75	8.75	4.00	4.50	0.25	0.50	0.50	0.50	0.25	0.50	0.25	0.00	0.25	0.25	-0.162598	0.120117	0.994629	-1.540000	-3.710000	3.780000	386.00	-0.236703	-0.067128
0.77	4.25	4.25	5.25	7.75	2.00	4.00	0.00	1.00	0.75	1.00	0.50	0.50	0.50	0.50	0.25	0.50	-0.159180	0.128906	0.977051	-1.820000	1.890000	0.700000	322.00	-0.203746	-0.094329	5.25	4.75	8.75	8.75	4.00	4.50	0.25	0.75	0.50	0.50	0.25	0.50	0.00	0.00	0.00	0.25	-0.156250	0.117676	0.996094	-1.540000	-3.780000	3.710000	385.00	-0.240820	-0.067922
0.78	4.00	4.25	5.25	7.50	2.00	4.00	0.25	0.75	0.75	0.50	0.50	0.50	0.50	0.50	0.00	0.50	-0.157227	0.130371	0.981445	-1.820000	1.960000	0.770000	310.00	-0.212071	-0.090222	5.25	4.50	8.75	8.75	3.50	4.50	0.25	0.75	0.50	0.50	0.25	0.50	0.00	0.00	0.00	0.25	-0.160645	0.116699	1.000488	-1.400000	-3.780000	3.710000	378.00	-0.241376	-0.069093
0.79	4.00	4.25	5.00	7.25	1.75	4.00	0.25	0.75	0.75	0.50	0.50	0.50	0.75	0.50	0.00	0.50	-0.153809	0.127441	0.981934	-1.890000	1.960000	0.700000	304.00	-0.209218	-0.094301	5.25	4.25	9.00	8.25	4.25	4.50	0.25	0.75	0.50	0.50	0.25	0.50	0.25	0.00	0.00	0.00	-0.163086	0.120117	0.991211	-1.330000	-3.780000	3.710000	381.00	-0.237494	-0.064125
0.80	4.00	4.25	5.25	7.50	1.75	4.00	0.25	1.00	0.50	0.75	0.50	0.50	0.50	0.50	0.00	0.50	-0.154297	0.127441	0.986816	-1.820000	2.240000	0.770000	310.00	-0.211585	-0.097160	5.00	4.75	9.00	8.25	4.25	4.50	0.25	0.50	0.50	0.50	0.25	0.50	0.25	0.00	0.00	0.25	-0.154297	0.120605	0.997559	-1.260000	-3.920000	3.710000	381.00	-0.238537	-0.064155
0.81	4.00	4.25	5.25	7.50	1.75	3.50	0.25	1.00	0.50	0.75	0.50	0.50	0.50	0.25	0.00	0.50	-0.153809	0.125488	0.979980	-1.750000	2.310000	0.700000	303.00	-0.216574	-0.096047	4.75	4.75	8.75	8.25	4.25	4.50	0.25	0.50	0.50	0.50	0.25	0.50	0.25	0.00	0.00	0.00	-0.160645	0.112793	0.994141	-1.190000	-4.060000	3.850000	375.00	-0.239308	-0.065461
0.82	4.00	4.25	5.25	7.50	1.75	3.75	0.25	0.75	0.75	1.00	0.50	0.50	0.50	0.25	0.00	0.50	-0.147949	0.131348	0.978027	-2.100000	2.310000	0.630000	308.00	-0.210232	-0.089300	4.75	4.75	9.00	8.75	4.25	4.50	0.25	0.50	0.50	0.50	0.00	0.25	0.25	0.00	0.00	0.25	-0.162109	0.115234	0.994629	-1.120000	-4.200000	4.060000	379.00	-0.243942	-0.065562
0.83	4.00	4.25	5.25	7.50	1.75	4.00	0.00	0.75	0.75	0.75	0.50	0.50	0.50	0.50	0.00	0.50	-0.157227	0.122559	0.982422	-2.100000	2.380000	0.560000	306.00	-0.212596	-0.094054	5.25	4.75	8.75	8.75	4.00	4.50	0.25	0.50	0.50	0.50	0.25	0.25	0.25	0.00	0.00	0.25	-0.158203	0.118164	0.992676	-0.910000	-4.410000	4.200000	381.00	-0.243608	-0.065585
0.84	4.00	4.25	5.25	7.50	1.75	4.00	0.25	0.75	0.75	0.75	0.75	0.50	0.75	0.50	0.00	0.50	-0.155273	0.125000	0.986816	-2.030000	2.170000	0.700000	314.00	-0.203583	-0.092819	5.25	4.50	8.75	8.75	4.25	4.50	0.25	0.75	0.50	0.25	0.25	0.50	0.25	0.00	0.00	0.25	-0.161133	0.119141	0.997070	-0.840000	-4.550000	4.270000	385.00	-0.239953	-0.069396
0.85	4.00	4.25	5.25	7.25	1.75	3.75	0.25	0.75	0.75	0.75	0.50	0.50	0.50	0.50	0.00	0.50	-0.157715	0.129883	0.975586	-1.680000	1.890000	0.770000	305.00	-0.209123	-0.087670	5.25	4.75	9.00	8.75	4.00	4.50	0.25	0.75	0.50	0.50	0.25	0.50	0.25	0.00	0.00	0.25	-0.162598	0.123047	0.995605	-0.420000	-4.550000	4.410000	389.00	-0.238881	-0.068908
0.86	4.00	4.25	5.25	7.25	1.75	3.75	0.25	0.75	0.75	1.00	0.50	0.50	0.50	0.25	0.00	0.50	-0.157715	0.126953	0.980469	-2.170000	2.100000	0.630000	305.00	-0.209597	-0.088186	5.00	5.00	9.25	9.25	3.75	4.75	0.25	0.75	0.50	0.50	0.25	0.50	0.25	0.00	0.25	0.00	-0.161133	0.124023	0.992676	0.420000	-5.110000	4.690000	398.00	-0.237763	-0.072841
0.87	4.00	4.25	5.25	7.25	1.75	3.50	0.25	0.75	0.75	0.75	0.50	0.50	0.50	0.25	0.00	0.50	-0.150391	0.124512	0.979004	-2.100000	2.310000	0.630000	300.00	-0.213634	-0.087860	4.75	4.75	9.25	9.25	4.25	4.75	0.25	0.75	0.50	0.50	0.25	0.50	0.25	0.00	0.00	0.00	-0.156738	0.115723	0.996582	0.630000	-5.670000	5.040000	396.00	-0.238329	-0.071673
0.88	4.00	4.25	5.00	6.75	1.75	3.75	0.25	0.75	0.50	1.00	0.50	0.50	0.50	0.25	0.25	0.50	-0.154297	0.126953	0.983398	-1.890000	2.310000	0.700000	297.00	-0.207481	-0.091005	5.25	5.00	9.25	9.75	4.25	4.75	0.25	1.00	0.50	0.25	0.00	0.25	0.25	0.00	0.00	0.25	-0.164551	0.117676	0.999023	0.980000	-6.160000	5.320000	405.00	-0.246221	-0.074642
0.89	4.00	4.25	4.75	7.25	1.75	3.75	0.00	0.75	0.75	1.00	0.50	0.50	0.50	0.25	0.00	0.50	-0.166992	0.126953	0.978027	-1.680000	2.100000	0.770000	297.00	-0.212041	-0.095125	6.00	5.25	9.25	10.50	4.25	5.75	0.25	1.00	0.25	0.25	0.00	0.25	0.25	0.00	0.00	0.25	-0.165039	0.118652	0.994141	1.610000	-6.930000	5.810000	429.00	-0.251709	-0.081721
0.90	4.00	4.25	5.00	7.50	1.75	3.50	0.00	0.50	0.50	0.75	0.50	0.50	0.25	0.00	0.00	0.50	-0.166992	0.125000	0.987305	-0.980000	1.610000	1.050000	287.00	-0.231680	-0.093962	6.00	5.75	9.75	10.75	4.25	5.75	0.25	1.00	0.25	0.25	0.25	0.50	0.25	0.00	0.00	0.25	-0.164551	0.118164	0.997559	2.170000	-7.700000	6.090000	446.00	-0.248565	-0.082707
0.91	4.00	4.25	4.75	7.25	1.75	3.50	0.25	0.75	0.25	0.50	0.50	0.50	0.50	0.00	0.00	0.50	-0.168457	0.126465	0.989746	0.070000	0.840000	1.470000	285.00	-0.230653	-0.101724	7.00	5.75	9.75	11.25	4.50	6.25	0.00	0.75	0.00	0.25	0.25	0.50	0.25	0.00	0.00	0.25	-0.166016	0.123047	1.004883	2.940000	-8.540000	6.790000	458.00	-0.258071	-0.084044
0.92	4.00	4.25	4.75	7.25	1.75	3.75	0.00	0.75	0.25	0.75	0.50	0.50	0.50	0.00	0.00	0.25	-0.173340	0.113281	1.036621	-0.490000	1.120000	1.470000	285.00	-0.232430	-0.105118	7.25	6.00	9.75	12.25	4.50	6.50	0.25	1.25	0.00	0.25	0.00	0.50	0.25	0.00	0.00	0.00	-0.156250	0.124023	1.001953	3.290000	-8.960000	7.420000	482.00	-0.257559	-0.088691
0.93	4.25	4.25	5.00	7.25	1.50	3.50	0.00	0.75	0.25	0.50	0.25	0.50	0.50	0.00	0.00	0.00	-0.164062	0.124023	0.992676	-0.770000	0.770000	1.400000	279.00	-0.246476	-0.101942	7.25	6.25	10.25	12.50	4.25	6.75	0.25	1.50	0.00	0.00	0.00	0.50	0.25	0.00	0.00	0.00	-0.161621	0.123535	1.010254	3.220000	-8.890000	7.700000	492.00	-0.259291	-0.092444
0.94	4.00	4.50	5.00	7.25	1.75	3.00	0.00	0.75	0.75	0.50	0.25	0.50	0.50	0.00	0.00	0.00	-0.154785	0.129395	0.995117	-0.910000	0.280000	1.330000	282.00	-0.236352	-0.091746	7.25	6.25	10.25	13.75	5.00	7.00	0.00	1.75	0.00	0.25	0.00	0.50	0.25	0.00	0.00	0.00	-0.161621	0.120117	1.010254	3.220000	-8.610000	7.840000	517.00	-0.255841	-0.097835
0.95	4.25	4.50	5.00	7.50	1.75	3.00	0.00	0.50	0.25	0.50	0.25	0.50	0.50	0.00	0.00	0.25	-0.157715	0.130859	0.991211	-1.120000	0.280000	1.330000	279.00	-0.248920	-0.096348	7.25	6.50	10.50	14.00	5.00	7.00	0.00	1.75	0.00	0.25	0.00	0.25	0.25	0.00	0.00	0.00	-0.158691	0.124023	1.014160	4.900000	-8.540000	8.330000	522.00	-0.258839	-0.096892
0.96	4.50	4.50	5.00	7.75	1.25	3.00	0.00	0.50	0.00	0.50	0.25	0.25	0.25	0.00	0.00	0.00	-0.151367	0.135254	0.998047	-1.470000	0.350000	1.190000	270.00	-0.268523	-0.097303	7.50	7.75	10.50	14.50	5.00	7.25	0.00	1.50	0.00	0.00	0.00	0.25	0.00	0.00	0.00	0.00	-0.160645	0.126953	1.025879	7.490000	-9.940000	8.680000	535.00	-0.267781	-0.096801
0.97	4.25	4.25	4.75	7.50	1.25	2.75	0.00	0.50	0.00	0.50	0.00	0.25	0.00	0.00	0.00	0.00	-0.143066	0.134277	0.982422	-2.240000	0.630000	0.840000	254.00	-0.275124	-0.094511	7.50	8.00	10.50	14.75	4.50	8.00	0.00	1.50	0.00	0.00	0.00	0.25	0.00	0.00	0.00	0.00	-0.180664	0.117188	1.044434	12.390000	-14.280000	9.310000	542.00	-0.268180	-0.101557
0.98	4.25	4.25	4.75	7.25	1.25	2.25	0.00	0.50	0.25	0.25	0.00	0.25	0.00	0.00	0.00	0.00	-0.131348	0.147461	1.001953	-3.920000	1.750000	0.420000	247.00	-0.275997	-0.086647	7.50	8.25	11.00	15.00	4.50	8.00	0.00	1.75	0.00	0.00	0.00	0.25	0.00	0.00	0.00	0.00	-0.158203	0.115234	1.034668	18.549999	-21.629999	9.730000	555.00	-0.267203	-0.102422
0.99	4.25	4.25	4.75	7.25	1.25	2.00	0.00	0.25	0.00	0.25	0.00	0.00	0.00	0.00	0.00	0.00	-0.147461	0.146973	0.986816	-4.970000	1.260000	0.490000	236.00	-0.292933	-0.082622	7.50	8.50	11.25	16.00	5.25	8.25	0.00	1.50	0.00	0.00	0.00	0.00	0.00	0.00	0.00	0.00	-0.142090	0.151855	0.989258	22.610001	-26.040001	10.430000	574.00	-0.269287	-0.099968
1.00	4.25	4.25	4.75	7.25	1.00	1.75	0.00	0.25	0.00	0.00	0.00	0.00	0.00	0.00	0.00	0.00	-0.137207	0.135254	0.979004	-5.530000	-0.770000	0.700000	228.00	-0.301872	-0.083659	8.00	9.00	11.25	16.25	5.25	8.25	0.00	1.50	0.00	0.00	0.00	0.25	0.25	0.00	0.00	0.00	-0.128418	0.176270	0.983887	22.120001	-26.110001	10.850000	589.00	-0.268051	-0.101319
1.01	4.00	4.25	4.75	6.75	1.00	1.50	0.00	0.00	0.00	0.00	0.00	0.00	0.00	0.00	0.00	0.00	-0.150391	0.129883	0.992188	-7.000000	-4.200000	0.560000	215.00	-0.307506	-0.075304	8.25	9.25	11.75	16.50	5.25	8.25	0.00	1.50	0.00	0.00	0.00	0.25	0.00	0.00	0.00	0.00	-0.131348	0.170410	0.986816	19.670000	-24.850000	11.270000	600.00	-0.270621	-0.098412
1.02	4.00	4.25	4.75	6.50	1.00	1.25	0.00	0.00	0.00	0.00	0.00	0.00	0.00	0.00	0.00	0.00	-0.159180	0.130859	1.011230	-8.330000	-7.910000	0.350000	210.00	-0.309585	-0.071173	8.25	9.75	11.75	16.75	5.25	8.25	0.00	1.25	0.00	0.00	0.00	0.25	0.00	0.00	0.00	0.00	-0.120117	0.149902	0.982910	17.010000	-23.590000	10.920000	603.00	-0.273201	-0.097719
1.03	4.00	4.25	4.75	6.25	1.00	1.25	0.00	0.00	0.00	0.00	0.00	0.00	0.00	0.00	0.00	0.00	-0.177734	0.121094	1.031250	-10.290000	-11.270000	1.120000	207.00	-0.309851	-0.069313	8.25	10.00	12.25	17.00	5.00	8.00	0.00	1.00	0.00	0.00	0.00	0.25	0.25	0.00	0.00	0.00	-0.126465	0.157227	0.998535	14.910000	-22.120001	10.080000	606.00	-0.274843	-0.096358
1.04	4.00	4.25	4.50	6.00	0.50	1.25	0.00	0.00	0.00	0.00	0.00	0.00	0.00	0.00	0.00	0.00	-0.172363	0.118164	1.017578	-10.010000	-14.070000	1.680000	197.00	-0.315408	-0.072714	8.50	10.00	12.00	17.00	5.00	8.25	0.00	1.00	0.00	0.00	0.00	0.25	0.00	0.00	0.00	0.00	-0.136719	0.164062	1.002441	13.860000	-22.680000	10.010000	606.00	-0.276342	-0.095862
1.05	4.00	4.25	4.50	5.50	0.50	0.75	0.00	0.00	0.00	0.00	0.00	0.00	0.00	0.00	0.00	0.00	-0.173340	0.103516	1.029297	-9.870000	-18.830000	1.960000	187.00	-0.320490	-0.063318	8.50	10.75	12.25	17.50	5.00	8.75	0.00	1.00	0.00	0.00	0.00	0.25	0.00	0.00	0.00	0.00	-0.125977	0.149902	1.010254	13.230000	-24.010000	9.940000	625.00	-0.276818	-0.098260
1.06	4.00	4.25	4.50	5.50	0.75	0.75	0.00	0.00	0.00	0.00	0.00	0.00	0.00	0.00	0.00	0.00	-0.181152	0.125488	1.057617	-6.790000	-23.170000	2.730000	190.00	-0.317907	-0.061668	8.75	11.00	12.25	17.75	5.00	8.25	0.00	1.00	0.00	0.00	0.00	0.25	0.00	0.00	0.00	0.00	-0.130371	0.150391	1.017090	13.230000	-26.040001	9.450000	627.00	-0.278796	-0.096827
1.07	4.00	4.00	4.50	5.50	0.50	0.75	0.00	0.00	0.00	0.00	0.00	0.00	0.00	0.00	0.00	0.00	-0.175781	0.133789	1.055664	-3.430000	-28.139999	4.200000	185.00	-0.319396	-0.062149	9.00	11.75	12.25	17.50	5.00	8.00	0.00	0.75	0.00	0.00	0.00	0.25	0.00	0.00	0.00	0.00	-0.121094	0.146973	1.020508	13.650000	-28.490000	8.680000	627.00	-0.282597	-0.093904
1.08	4.00	4.25	4.50	5.50	0.50	0.25	0.00	0.00	0.00	0.00	0.00	0.00	0.00	0.00	0.00	0.00	-0.123047	0.125977	0.963867	-1.120000	-31.080000	6.230000	182.00	-0.325083	-0.057596	9.00	12.25	12.25	17.75	5.00	8.25	0.00	0.75	0.00	0.00	0.00	0.25	0.00	0.00	0.00	0.00	-0.104980	0.151367	0.958008	13.510000	-30.240000	7.560000	637.00	-0.282993	-0.095597
1.09	4.25	4.25	4.75	5.50	0.50	0.00	0.00	0.00	0.00	0.00	0.00	0.00	0.00	0.00	0.00	0.00	-0.123047	0.125977	0.963867	-1.120000	-31.080000	6.230000	185.00	-0.327591	-0.050533	9.25	12.25	12.25	18.00	5.00	8.25	0.00	0.75	0.00	0.00	0.00	0.25	0.25	0.00	0.00	0.00	-0.104980	0.162598	0.998535	13.230000	-31.150000	6.930000	643.00	-0.282052	-0.096484
1.10	4.25	4.25	4.75	6.00	0.50	0.50	0.00	0.00	0.00	0.00	0.00	0.00	0.00	0.00	0.00	0.00	-0.110840	0.120605	0.976074	-0.490000	-29.960001	6.580000	195.00	-0.322078	-0.060708	9.25	12.25	12.25	17.75	4.50	8.00	0.00	0.50	0.00	0.00	0.00	0.50	0.00	0.00	0.00	0.00	-0.090820	0.189941	0.999512	12.670000	-31.360001	6.650000	630.00	-0.284826	-0.094512
1.11	4.25	4.25	4.75	6.00	0.50	0.50	0.00	0.00	0.00	0.00	0.00	0.00	0.00	0.00	0.00	0.00	-0.107422	0.115723	0.980957	1.330000	-30.100000	6.860000	195.00	-0.322078	-0.060708	9.00	12.50	12.25	17.75	4.50	8.25	0.00	0.50	0.00	0.00	0.00	0.25	0.00	0.00	0.00	0.00	-0.084473	0.187500	0.985840	10.570000	-30.940001	6.720000	630.00	-0.286189	-0.095450
1.12	4.50	4.75	5.00	6.75	0.50	0.50	0.00	0.00	0.00	0.00	0.00	0.00	0.00	0.00	0.00	0.00	-0.101074	0.113770	0.991211	2.870000	-30.309999	7.140000	211.00	-0.322961	-0.064943	9.25	12.50	12.00	17.50	4.50	8.00	0.00	0.25	0.00	0.00	0.00	0.25	0.25	0.00	0.00	0.00	-0.075684	0.191895	0.949707	7.840000	-28.000000	6.790000	624.00	-0.287318	-0.093721
1.13	4.50	4.75	5.00	6.75	0.50	0.50	0.00	0.00	0.00	0.00	0.00	0.00	0.00	0.00	0.00	0.00	-0.099121	0.111328	1.009766	4.760000	-31.570000	7.280000	211.00	-0.322961	-0.064943	9.50	12.25	12.00	17.25	4.25	7.25	0.00	0.25	0.00	0.00	0.00	0.25	0.25	0.00	0.00	0.00	-0.072754	0.200195	0.950195	3.920000	-23.660000	6.300000	611.00	-0.289636	-0.090598
1.14	5.00	5.25	4.75	6.75	0.50	0.50	0.00	0.00	0.00	0.00	0.00	0.00	0.00	0.00	0.00	0.00	-0.098633	0.127930	1.000000	6.720000	-34.230000	7.700000	218.00	-0.327196	-0.064929	9.25	12.25	12.00	17.25	4.25	7.25	0.00	0.25	0.00	0.00	0.00	0.25	0.00	0.00	0.00	0.00	-0.068359	0.184570	0.958008	-0.140000	-19.460001	5.600000	607.00	-0.290700	-0.090157
1.15	5.00	5.25	5.00	7.25	0.50	0.50	0.00	0.00	0.00	0.00	0.00	0.00	0.00	0.00	0.00	0.00	-0.087402	0.118652	0.984375	9.380000	-35.139999	8.190000	225.00	-0.325614	-0.066743	9.25	12.25	11.75	17.00	4.25	7.00	0.00	0.25	0.00	0.00	0.00	0.00	0.00	0.00	0.00	0.00	-0.061035	0.187012	0.936523	-3.850000	-14.910000	4.690000	597.00	-0.293420	-0.088766
1.16	5.00	5.50	5.00	7.50	0.50	0.50	0.00	0.00	0.00	0.00	0.00	0.00	0.00	0.00	0.00	0.00	-0.072266	0.120605	0.946289	12.390000	-34.369999	8.820000	230.00	-0.326033	-0.069379	9.00	11.75	11.75	17.00	4.25	7.00	0.00	0.25	0.00	0.00	0.00	0.00	0.00	0.00	0.00	0.00	-0.057129	0.182129	0.926270	-7.420000	-9.100000	3.710000	590.00	-0.292100	-0.089007
1.17	5.00	6.00	5.00	7.75	0.50	0.50	0.00	0.00	0.00	0.00	0.00	0.00	0.00	0.00	0.00	0.00	-0.064941	0.109863	0.944824	14.560000	-32.270000	8.750000	237.00	-0.327238	-0.072749	8.75	11.50	11.75	16.75	4.25	6.75	0.00	0.25	0.00	0.00	0.00	0.00	0.00	0.00	0.00	0.00	-0.053711	0.166992	0.916016	-10.150000	-2.170000	2.660000	581.00	-0.291814	-0.088159
1.18	5.50	6.00	5.25	8.50	0.50	0.50	0.00	0.00	0.00	0.00	0.00	0.00	0.00	0.00	0.00	0.00	-0.045898	0.113770	0.916992	14.700000	-28.840000	7.630000	251.00	-0.326858	-0.072237	8.75	11.00	11.75	16.50	4.00	6.75	0.00	0.25	0.00	0.00	0.00	0.00	0.00	0.00	0.00	0.00	-0.054199	0.153809	0.927734	-11.900000	4.760000	1.120000	572.00	-0.291645	-0.087642
1.19	5.50	6.00	5.25	8.50	0.50	0.50	0.00	0.00	0.00	0.00	0.00	0.00	0.00	0.00	0.00	0.00	-0.023438	0.125000	0.906250	15.120000	-23.379999	6.370000	251.00	-0.326858	-0.072237	8.75	10.75	11.50	16.50	3.75	6.50	0.00	0.25	0.00	0.00	0.00	0.25	0.00	0.00	0.00	0.00	-0.081055	0.166504	0.966797	-13.790000	14.280000	-1.050000	564.00	-0.290509	-0.088884
1.20	5.50	6.50	5.50	8.75	0.50	0.75	0.00	0.00	0.00	0.00	0.00	0.00	0.00	0.00	0.00	0.00	-0.046875	0.125000	0.950684	14.420000	-18.620001	5.390000	263.00	-0.325674	-0.075524	8.75	10.50	11.50	16.25	3.75	6.50	0.00	0.25	0.00	0.00	0.00	0.00	0.00	0.00	0.00	0.00	-0.081055	0.166504	0.966797	-13.790000	14.280000	-1.050000	557.00	-0.292210	-0.087086
1.21	5.50	6.75	5.50	8.75	0.50	0.75	0.00	0.00	0.00	0.00	0.00	0.00	0.00	0.00	0.00	0.00	-0.057617	0.131348	0.979492	12.320000	-15.820000	4.200000	265.00	-0.326396	-0.076243	8.75	10.00	11.25	16.00	4.00	6.25	0.00	0.25	0.00	0.00	0.00	0.00	0.00	0.00	0.00	0.00	-0.095215	0.148438	0.987305	-13.090000	17.290001	-1.750000	548.00	-0.291271	-0.085147
1.22	6.00	7.25	5.50	8.75	0.50	1.00	0.00	0.00	0.00	0.00	0.00	0.00	0.00	0.00	0.00	0.00	-0.053711	0.129883	0.951660	10.990000	-14.000000	3.220000	277.00	-0.327521	-0.076212	8.50	10.00	11.00	15.50	4.00	6.25	0.00	0.00	0.00	0.00	0.00	0.00	0.00	0.00	0.00	0.00	-0.095215	0.148438	0.987305	-13.090000	17.290001	-1.750000	535.00	-0.292746	-0.083534
1.23	6.00	8.00	6.00	8.75	0.50	1.25	0.00	0.00	0.00	0.00	0.00	0.00	0.00	0.00	0.00	0.00	-0.025391	0.138672	0.908691	10.360000	-10.080000	2.170000	291.00	-0.326867	-0.076942	8.25	9.75	10.75	15.25	3.75	5.75	0.00	0.00	0.00	0.00	0.00	0.00	0.00	0.00	0.00	0.00	-0.113281	0.156250	0.998535	-12.110000	17.990000	-2.450000	518.00	-0.294058	-0.083128
1.24	6.50	8.50	6.25	9.50	0.75	1.25	0.00	0.00	0.00	0.00	0.00	0.00	0.00	0.00	0.00	0.00	-0.031250	0.148926	0.930664	10.430000	-5.740000	1.960000	312.00	-0.326168	-0.076422	8.25	9.50	10.75	15.00	3.50	5.50	0.00	0.00	0.00	0.00	0.00	0.00	0.00	0.00	0.00	0.00	-0.110840	0.157715	0.988770	-12.390000	19.110001	-2.940000	508.00	-0.295111	-0.081869
1.25	6.50	8.75	6.75	10.50	1.00	1.25	0.00	0.00	0.00	0.00	0.00	0.00	0.00	0.00	0.00	0.00	-0.041992	0.143066	0.955566	10.920000	-2.660000	2.100000	332.00	-0.323122	-0.077888	8.25	9.50	10.50	14.75	3.50	5.50	0.00	0.00	0.00	0.00	0.00	0.00	0.00	0.00	0.00	0.00	-0.103027	0.158691	0.977051	-13.370000	21.420000	-3.500000	503.00	-0.295299	-0.082024
1.26	7.00	8.75	7.25	10.75	1.00	1.50	0.00	0.00	0.00	0.00	0.00	0.00	0.00	0.00	0.00	0.00	-0.028320	0.140625	0.917480	11.060000	1.190000	1.680000	347.00	-0.321885	-0.075339	8.00	9.00	10.50	14.50	3.50	5.25	0.00	0.00	0.00	0.00	0.00	0.00	0.00	0.00	0.00	0.00	-0.102051	0.149414	0.972656	-15.260000	24.430000	-4.270000	492.00	-0.294502	-0.080528
1.27	7.25	8.75	7.25	11.00	1.00	1.50	0.00	0.00	0.00	0.00	0.00	0.00	0.00	0.00	0.00	0.00	-0.019531	0.148438	0.879395	11.200000	6.930000	1.330000	352.00	-0.322189	-0.075166	8.00	9.00	10.25	14.25	3.25	5.25	0.00	0.00	0.00	0.00	0.00	0.00	0.00	0.00	0.00	0.00	-0.101074	0.151367	0.968262	-17.990000	28.910000	-5.670000	484.00	-0.295569	-0.081412
1.28	7.50	9.00	7.75	11.50	1.00	1.75	0.00	0.00	0.00	0.00	0.00	0.00	0.00	0.00	0.00	0.00	-0.023926	0.139160	0.880371	9.590000	23.170000	-0.140000	369.00	-0.320846	-0.075598	7.50	8.50	10.00	13.75	3.00	4.75	0.00	0.00	0.00	0.00	0.00	0.00	0.00	0.00	0.00	0.00	-0.084961	0.157715	0.950195	-21.559999	34.160000	-7.490000	460.00	-0.296086	-0.080685
1.29	7.50	10.00	8.75	12.00	1.00	2.75	0.00	0.00	0.00	0.00	0.00	0.00	0.00	0.00	0.00	0.00	-0.049805	0.160156	0.931641	8.610000	31.150000	-1.120000	402.00	-0.316859	-0.080050	7.50	8.00	9.75	13.00	2.75	4.50	0.00	0.00	0.00	0.00	0.00	0.00	0.00	0.00	0.00	0.00	-0.085449	0.155273	0.939453	-25.900000	40.180000	-9.870000	441.00	-0.297042	-0.078115
1.30	8.00	11.25	8.75	12.75	1.25	4.00	0.00	0.25	0.00	0.00	0.00	0.00	0.00	0.00	0.00	0.00	-0.080078	0.174805	0.968262	8.120000	35.000000	-1.120000	443.00	-0.311566	-0.089586	7.25	7.25	9.25	12.25	2.50	4.25	0.00	0.25	0.00	0.00	0.00	0.00	0.00	0.00	0.00	0.00	-0.091309	0.152344	0.938965	-32.060001	46.340000	-12.740000	418.00	-0.294714	-0.079534
1.31	8.00	11.50	9.50	13.50	1.25	4.25	0.00	0.00	0.00	0.00	0.00	0.00	0.00	0.00	0.00	0.00	-0.079590	0.179199	0.980957	7.700000	37.730000	-0.350000	460.00	-0.312286	-0.087878	7.00	6.50	8.75	10.50	1.75	3.75	0.00	0.25	0.00	0.00	0.00	0.00	0.00	0.00	0.00	0.00	-0.105957	0.185059	0.972168	-39.480000	50.959999	-15.680000	374.00	-0.298010	-0.075010
1.32	8.00	11.75	10.00	14.00	1.75	4.25	0.00	0.25	0.00	0.00	0.00	0.00	0.00	0.00	0.00	0.00	-0.104492	0.191895	1.004883	5.320000	39.549999	0.560000	481.00	-0.307864	-0.088408	6.00	5.75	7.75	8.75	1.25	2.00	0.00	0.00	0.00	0.00	0.00	0.00	0.00	0.00	0.00	0.00	-0.136230	0.195312	1.027832	-47.670002	52.150002	-18.129999	305.00	-0.308411	-0.063022
1.33	8.75	13.00	10.75	14.75	2.00	4.50	0.00	0.25	0.00	0.00	0.00	0.00	0.00	0.00	0.00	0.00	-0.117188	0.186523	1.013184	3.150000	39.340000	2.100000	518.00	-0.308829	-0.086800	4.75	4.75	6.25	7.00	1.00	1.25	0.00	0.00	0.00	0.00	0.00	0.00	0.00	0.00	0.00	0.00	-0.227051	0.142578	1.302734	-51.170002	51.799999	-20.299999	241.00	-0.310953	-0.060549
1.34	9.25	14.00	11.50	15.75	2.00	5.25	0.00	0.50	0.00	0.00	0.00	0.00	0.00	0.00	0.00	0.00	-0.129883	0.154297	1.012207	2.590000	38.779999	4.270000	560.00	-0.306349	-0.090778	3.75	3.75	4.75	6.00	0.25	0.75	0.00	0.00	0.00	0.00	0.00	0.00	0.00	0.00	0.00	0.00	-0.072266	0.203613	1.301270	-47.040001	47.459999	-20.860001	186.00	-0.318246	-0.067134
1.35	10.25	15.00	12.50	16.75	2.25	6.00	0.00	0.50	0.00	0.00	0.00	0.00	0.25	0.00	0.00	0.00	-0.133301	0.144531	1.035645	1.120000	37.730000	5.110000	610.00	-0.304199	-0.090726	3.25	3.25	4.00	4.50	0.00	0.00	0.00	0.00	0.00	0.00	0.00	0.00	0.00	0.00	0.00	0.00	-0.095215	0.248535	1.512207	-65.449997	68.040001	-34.580002	144.00	-0.330543	-0.053443
1.36	11.00	15.50	12.50	17.50	3.75	7.00	0.00	1.25	0.00	0.00	0.00	0.00	0.75	0.00	0.00	0.00	-0.104004	0.150391	1.101562	-1.960000	32.060001	4.480000	668.00	-0.292100	-0.096786	1.75	2.00	2.75	3.25	0.00	0.00	0.00	0.00	0.00	0.00	0.00	0.00	0.00	0.00	0.00	0.00	-0.295410	0.662598	1.695312	-43.330002	107.800003	-53.830002	94.00	-0.324469	-0.061848
1.37	11.25	15.50	12.75	17.50	4.00	7.50	0.00	1.75	0.00	0.25	0.00	0.00	0.50	0.00	0.00	0.00	-0.078613	0.168457	1.053223	-3.990000	24.850000	3.360000	688.00	-0.287434	-0.097453	1.25	1.50	2.00	2.50	0.00	0.00	0.00	0.00	0.00	0.00	0.00	0.00	0.00	0.00	0.00	0.00	-0.294434	0.391113	1.812500	-29.889999	153.580002	-88.269997	70.00	-0.324009	-0.066132
1.38	11.25	15.50	13.00	17.50	4.25	7.50	0.00	1.50	0.00	0.00	0.00	0.00	0.25	0.00	0.00	0.00	-0.075684	0.175293	1.005859	-5.040000	20.719999	2.520000	685.00	-0.291315	-0.094183	1.50	1.25	1.50	1.75	0.00	0.00	0.00	0.00	0.00	0.00	0.00	0.00	0.00	0.00	0.00	0.00	-0.165527	0.655273	1.556152	-35.070000	174.160004	-111.580002	58.00	-0.333838	-0.048319
1.39	10.75	15.50	12.75	17.00	4.25	7.50	0.00	2.50	0.00	0.00	0.25	0.25	0.25	0.00	0.00	0.00	-0.105469	0.163086	0.987305	-7.560000	20.160000	1.400000	692.00	-0.281527	-0.102062	1.25	1.00	1.25	1.50	0.00	0.00	0.00	0.00	0.00	0.00	0.00	0.00	0.00	0.00	0.00	0.00	0.753418	1.487305	1.799805	-98.980003	172.270004	-128.589996	48.00	0.000000	0.000000
1.40	10.50	15.25	12.50	16.75	4.25	8.25	0.00	2.75	0.00	0.00	0.00	0.25	0.50	0.00	0.00	0.00	-0.120117	0.172852	1.003906	-9.520000	19.950001	0.350000	693.00	-0.278449	-0.107129	0.75	1.00	1.00	1.50	0.00	0.00	0.00	0.00	0.00	0.00	0.00	0.00	0.00	0.00	0.00	0.00	0.753418	1.487305	1.799805	-98.980003	172.270004	-128.589996	41.00	0.000000	0.000000
1.41	10.50	14.75	12.25	16.50	4.00	8.25	0.00	2.75	0.00	0.25	0.00	0.25	0.75	0.00	0.00	0.00	-0.111328	0.173340	0.968750	-11.410000	20.160000	-0.420000	685.00	-0.275073	-0.108123	0.00	0.25	0.25	0.75	0.00	0.00	0.00	0.00	0.00	0.00	0.00	0.00	0.00	0.00	0.00	0.00	0.852539	1.885742	1.840332	-91.419998	142.029999	-105.910004	12.00	0.000000	0.000000
1.42	10.25	14.50	12.00	16.00	4.00	8.25	0.25	2.75	0.00	0.25	0.00	0.25	0.75	0.00	0.00	0.00	-0.115723	0.170410	0.980469	-14.140000	22.330000	-0.770000	677.00	-0.272298	-0.106774	0.00	0.00	0.25	0.75	0.00	0.00	0.00	0.00	0.00	0.00	0.00	0.00	0.00	0.00	0.00	0.00	1.220215	1.996582	1.578125	-15.050000	107.590004	-66.500000	10.00	0.000000	0.000000
1.43	9.50	13.75	11.75	15.75	4.25	8.00	0.25	2.75	0.25	0.25	0.00	0.25	0.75	0.00	0.00	0.00	-0.122559	0.158203	1.005371	-17.010000	23.520000	-1.330000	661.00	-0.266982	-0.105843	0.00	0.50	0.25	0.75	0.00	0.00	0.00	0.00	0.00	0.00	0.00	0.00	0.00	0.00	0.00	0.00	1.270996	1.539062	1.209961	52.990002	79.660004	-27.930000	14.00	0.000000	0.000000
1.44	9.25	13.50	11.75	15.50	4.25	7.75	0.25	3.00	0.00	0.50	0.00	0.25	0.75	0.00	0.00	0.00	-0.150391	0.127441	1.057617	-14.210000	18.830000	-1.750000	655.00	-0.265562	-0.107974	0.00	0.25	0.25	0.25	0.00	0.00	0.00	0.00	0.00	0.00	0.00	0.00	0.00	0.00	0.00	0.00	1.263184	1.203613	1.076660	88.129997	64.540001	8.540000	7.00	0.000000	0.000000
1.45	8.75	13.00	11.25	15.25	4.25	7.50	0.25	3.00	0.00	0.50	0.00	0.25	0.75	0.00	0.00	0.00	-0.150391	0.127441	1.057617	-14.210000	18.830000	-1.750000	636.00	-0.263893	-0.109681	0.00	0.00	0.00	0.00	0.00	0.00	0.00	0.00	0.00	0.00	0.00	0.00	0.00	0.00	0.00	0.00	1.281738	0.911133	1.023438	104.580002	53.689999	42.910000	0.00	0.000000	0.000000
1.46	8.75	12.75	11.00	15.00	4.00	7.50	0.25	3.00	0.25	0.50	0.00	0.25	0.75	0.00	0.00	0.00	-0.129395	0.158691	0.978516	-12.950000	15.610000	-3.080000	629.00	-0.261359	-0.108696	0.00	0.00	0.00	0.00	0.00	0.00	0.00	0.00	0.00	0.00	0.00	0.00	0.00	0.00	0.00	0.00	1.259766	0.624023	1.077148	121.660004	39.900002	71.540001	0.00	0.000000	0.000000
1.47	8.50	12.25	11.00	14.75	4.00	7.25	0.25	2.50	0.25	0.50	0.25	0.25	0.75	0.00	0.00	0.00	-0.137207	0.145020	0.988281	-14.560000	15.470000	-3.920000	613.00	-0.261001	-0.104816	0.00	0.00	0.00	0.00	0.00	0.00	0.00	0.00	0.00	0.00	0.00	0.00	0.00	0.00	0.00	0.00	1.162598	-0.089355	1.179688	148.330002	5.460000	95.480003	0.00	0.000000	0.000000
1.48	8.50	11.75	10.75	14.50	4.00	7.00	0.25	2.50	0.25	0.75	0.50	0.00	0.75	0.00	0.00	0.00	-0.137695	0.141113	0.968750	-14.980000	14.770000	-4.130000	604.00	-0.258207	-0.102634	0.00	0.00	0.00	0.00	0.00	0.00	0.00	0.00	0.00	0.00	0.00	0.00	0.00	0.00	0.00	0.00	1.162598	-0.089355	1.179688	148.330002	5.460000	95.480003	0.00	0.000000	0.000000
1.49	8.00	11.75	10.75	14.00	4.00	6.75	0.25	2.50	0.50	0.75	0.00	0.25	0.75	0.00	0.00	0.00	-0.138184	0.137695	0.982422	-14.140000	13.370000	-4.270000	592.00	-0.256652	-0.101346	0.00	0.00	0.00	0.00	0.00	0.00	0.00	0.00	0.00	0.00	0.00	0.00	0.00	0.00	0.00	0.00	1.016602	-0.500488	1.307129	126.699997	-41.160000	84.000000	0.00	0.000000	0.000000
1.50	8.00	11.25	10.25	13.75	4.25	6.50	0.25	2.50	0.75	1.00	0.25	0.50	0.75	0.00	0.00	0.00	-0.144531	0.136719	0.977051	-12.880000	11.620000	-4.200000	590.00	-0.246719	-0.098875	0.00	0.00	0.00	0.00	0.00	0.00	0.00	0.00	0.00	0.00	0.00	0.00	0.00	0.00	0.00	0.00	1.016602	-0.500488	1.307129	126.699997	-41.160000	84.000000	0.00	0.000000	0.000000
1.51	7.50	10.25	10.00	13.50	4.25	6.50	0.25	2.50	0.50	1.00	0.50	0.50	0.75	0.00	0.00	0.00	-0.131348	0.130371	0.971680	-11.550000	10.150000	-3.780000	572.00	-0.243310	-0.101918	0.00	0.00	0.00	0.00	0.00	0.00	0.00	0.00	0.00	0.00	0.00	0.00	0.00	0.00	0.00	0.00	0.828125	-0.696777	1.345703	84.000000	-94.570000	56.070000	0.00	0.000000	0.000000
1.52	7.50	9.75	9.75	13.00	4.25	6.25	0.25	2.50	0.75	1.25	0.50	0.50	0.75	0.00	0.00	0.00	-0.140137	0.133789	0.980957	-9.870000	8.470000	-3.710000	563.00	-0.237218	-0.097750	0.00	0.00	0.00	0.00	0.00	0.00	0.00	0.00	0.00	0.00	0.00	0.00	0.00	0.00	0.00	0.00	0.737793	-0.688965	1.351074	64.050003	-119.209999	39.689999	0.00	0.000000	0.000000
1.53	7.25	9.25	9.75	12.75	4.50	6.25	0.25	2.50	0.75	1.50	0.50	0.50	0.75	0.00	0.00	0.00	-0.147949	0.122559	0.988770	-8.120000	7.140000	-3.500000	558.00	-0.232397	-0.096135	0.00	0.00	0.00	0.00	0.00	0.00	0.00	0.00	0.00	0.00	0.00	0.00	0.00	0.00	0.00	0.00	0.640137	-0.634766	1.322266	48.930000	-141.539993	25.480000	0.00	0.000000	0.000000
1.54	7.25	9.00	9.50	12.75	4.50	6.25	0.25	2.75	0.75	1.50	0.50	0.25	1.00	0.00	0.00	0.00	-0.152344	0.122559	0.979492	-6.370000	6.160000	-3.360000	557.00	-0.230649	-0.099012	0.00	0.00	0.00	0.00	0.00	0.00	0.00	0.00	0.00	0.00	0.00	0.00	0.00	0.00	0.00	0.00	0.533203	-0.537598	1.307617	37.869999	-160.300003	15.680000	0.00	0.000000	0.000000
1.55	7.00	8.75	9.25	12.50	4.50	6.25	0.25	3.00	1.00	2.00	0.50	0.50	1.00	0.25	0.00	0.00	-0.147949	0.127930	0.978516	-5.320000	5.740000	-3.220000	563.00	-0.216780	-0.098257	0.00	0.00	0.00	0.00	0.00	0.00	0.00	0.00	0.00	0.00	0.00	0.00	0.00	0.00	0.00	0.00	0.410156	-0.462402	1.276367	28.070000	-174.720001	10.850000	0.00	0.000000	0.000000
1.56	6.75	9.00	8.75	12.25	4.50	6.00	0.25	3.00	1.25	2.00	0.50	0.50	1.25	0.50	0.00	0.00	-0.150879	0.125977	0.979004	-4.200000	5.320000	-3.220000	559.00	-0.210164	-0.098096	0.00	0.00	0.00	0.00	0.00	0.00	0.00	0.00	0.00	0.00	0.00	0.00	0.00	0.00	0.00	0.00	0.272949	-0.378418	1.218750	18.549999	-184.660004	10.290000	0.00	0.000000	0.000000
1.57	6.50	9.00	8.75	12.00	4.50	6.00	0.25	3.25	1.25	2.50	0.50	0.50	1.50	0.75	0.00	0.00	-0.141602	0.126465	0.960449	-2.800000	4.830000	-3.220000	567.00	-0.200538	-0.099170	0.00	0.00	0.00	0.00	0.00	0.00	0.00	0.00	0.00	0.00	0.00	0.00	0.00	0.00	0.00	0.00	0.112305	-0.312500	1.135742	9.940000	-189.559998	11.970000	0.00	0.000000	0.000000
1.58	6.50	8.75	8.75	11.50	4.75	6.00	0.50	3.75	1.75	2.50	0.75	0.75	1.50	1.00	0.00	0.00	-0.138672	0.131348	0.958008	-1.400000	4.970000	-3.360000	585.00	-0.184633	-0.094739	0.00	0.00	0.00	0.00	0.00	0.00	0.00	0.00	0.00	0.00	0.00	0.00	0.00	0.00	0.00	0.00	-0.052246	-0.241699	1.058105	1.890000	-188.789993	13.790000	0.00	0.000000	0.000000
1.59	6.25	8.25	8.50	11.25	4.50	6.00	0.50	3.75	2.25	2.50	1.00	1.00	2.25	1.25	0.00	0.25	-0.138184	0.135254	0.961426	-0.280000	5.740000	-3.710000	591.00	-0.167131	-0.096395	0.00	0.00	0.00	0.00	0.00	0.00	0.00	0.00	0.00	0.00	0.00	0.00	0.00	0.00	0.00	0.00	-0.212891	-0.161621	0.999512	-7.000000	-181.930008	15.820000	0.00	0.000000	0.000000
1.60	6.00	7.25	8.25	11.00	4.50	6.25	0.50	4.00	2.75	2.25	1.00	1.25	2.50	2.25	0.00	0.50	-0.143066	0.133789	0.979004	0.420000	9.800000	-4.340000	598.00	-0.146878	-0.094754	0.00	0.00	0.00	0.00	0.00	0.00	0.00	0.00	0.00	0.00	0.00	0.00	0.00	0.00	0.00	0.00	-0.383789	-0.060547	0.974121	-16.870001	-169.889999	18.620001	0.00	0.000000	0.000000
1.61	5.75	6.75	7.75	10.50	4.50	6.25	0.50	4.25	3.25	3.25	1.75	1.50	3.00	3.00	0.25	0.50	-0.143066	0.133789	0.979004	0.420000	9.800000	-4.340000	622.00	-0.116302	-0.091952	0.00	0.00	0.00	0.00	0.00	0.00	0.00	0.00	0.00	0.00	0.00	0.00	0.00	0.00	0.00	0.00	-0.584961	0.026855	0.965820	-24.570000	-154.279999	21.559999	0.00	0.000000	0.000000
1.62	5.50	6.50	7.00	9.50	4.50	5.75	0.50	4.25	4.25	3.75	2.50	2.25	3.75	3.25	0.25	0.50	-0.139648	0.139160	0.990723	-1.120000	14.070000	-5.250000	634.00	-0.087835	-0.088292	0.00	0.00	0.00	0.00	0.00	0.00	0.00	0.00	0.00	0.00	0.00	0.00	0.00	0.00	0.00	0.00	-0.869141	0.125977	0.952637	-28.210001	-136.779999	24.080000	0.00	0.000000	0.000000
1.63	5.00	5.75	6.00	8.75	4.50	5.25	0.75	4.25	4.75	3.75	3.00	3.00	4.00	3.75	0.50	1.00	-0.153320	0.133789	1.014648	-3.080000	21.420000	-6.860000	633.00	-0.058954	-0.086509	0.00	0.00	0.00	0.00	0.00	0.00	0.00	0.00	0.00	0.00	0.00	0.00	0.00	0.00	0.00	0.00	-1.191406	0.219238	0.905762	-27.930000	-117.599998	29.330000	0.00	0.000000	0.000000
1.64	4.50	5.25	5.50	8.75	4.75	4.75	1.00	4.00	5.75	4.00	3.75	3.00	4.25	5.00	0.50	1.25	-0.175781	0.129395	1.026367	-4.550000	25.410000	-7.280000	651.00	-0.032954	-0.074170	0.00	0.00	0.00	0.00	0.00	0.00	0.00	0.00	0.00	0.00	0.00	0.00	0.00	0.00	0.00	0.00	-1.544434	0.255859	0.858887	-24.990000	-97.090004	40.180000	0.00	0.000000	0.000000
1.65	4.25	4.50	5.00	7.25	4.50	4.50	0.75	4.00	7.25	4.50	4.00	3.50	4.50	5.50	1.00	2.25	-0.179688	0.136719	1.010742	-4.620000	27.790001	-7.700000	659.00	0.001869	-0.066050	0.00	0.00	0.00	0.00	0.00	0.00	0.00	0.00	0.00	0.00	0.00	0.00	0.00	0.00	0.00	0.00	-1.878418	0.301270	0.954590	-13.510000	-80.010002	56.000000	0.00	0.000000	0.000000
1.66	4.00	4.25	4.50	6.25	4.00	4.25	0.75	4.00	8.25	4.75	4.25	4.00	5.00	6.00	1.25	2.75	-0.183105	0.133789	1.019531	-4.130000	30.170000	-8.680000	667.00	0.026500	-0.062532	0.00	0.00	0.00	0.00	0.00	0.00	0.00	0.00	0.00	0.00	0.00	0.00	0.00	0.00	0.00	0.00	-2.119141	0.183105	0.979004	4.060000	-72.590004	71.540001	0.00	0.000000	0.000000
1.67	3.75	3.75	4.00	5.00	3.00	4.00	0.50	3.75	10.00	5.25	4.75	4.50	5.00	7.75	2.50	3.75	-0.178711	0.143555	1.038086	-3.640000	33.389999	-10.220000	689.00	0.069216	-0.049875	0.00	0.00	0.00	0.00	0.00	0.00	0.00	0.00	0.00	0.00	0.00	0.00	0.00	0.00	0.00	0.00	-2.337402	-0.059082	0.835449	14.070000	-71.470001	78.889999	0.00	0.000000	0.000000
1.68	3.50	3.50	3.50	4.25	2.00	3.50	0.50	3.25	11.00	5.75	5.25	4.75	5.00	8.00	2.50	4.25	-0.180664	0.166504	1.047852	-3.010000	38.360001	-12.390000	678.00	0.092344	-0.040819	0.00	0.00	0.00	0.00	0.00	0.00	0.00	0.00	0.00	0.00	0.00	0.00	0.00	0.00	0.00	0.00	-2.516113	-0.285645	0.573242	8.190000	-65.660004	72.730003	0.00	0.000000	0.000000
1.69	3.50	3.25	2.50	3.50	1.50	2.00	0.25	2.75	12.00	6.50	6.00	4.75	5.00	8.25	3.25	4.50	-0.183105	0.168945	1.068359	-3.570000	45.639999	-15.190001	665.00	0.122904	-0.028048	0.00	0.00	0.00	0.00	0.00	0.00	0.00	0.00	0.00	0.00	0.00	0.00	0.00	0.00	0.00	0.00	-2.652832	-0.463379	0.294434	-7.210000	-48.090000	52.639999	0.00	0.000000	0.000000
1.70	3.00	2.25	2.25	3.25	1.00	1.25	0.25	2.25	12.25	7.00	6.00	5.00	4.50	9.00	3.75	4.75	-0.202148	0.168457	1.106934	-5.390000	56.910000	-18.200001	645.00	0.150231	-0.016228	0.00	0.00	0.00	0.00	0.00	0.00	0.00	0.00	0.00	0.00	0.00	0.00	0.00	0.00	0.00	0.00	-2.681152	-0.506836	0.114746	-25.059999	-18.270000	19.389999	0.00	0.000000	0.000000
1.71	1.50	2.00	1.75	2.25	0.75	0.75	0.00	1.50	12.00	7.25	6.00	5.00	4.50	9.75	3.75	5.25	-0.224609	0.177734	1.166992	3.850000	82.669998	-22.330000	600.00	0.186311	-0.009725	0.00	0.00	0.00	0.00	0.00	0.00	0.00	0.00	0.00	0.00	0.00	0.00	0.00	0.00	0.00	0.00	-2.589355	-0.404785	0.124512	-39.759998	17.290001	-20.790001	0.00	0.000000	0.000000
1.72	1.25	1.75	0.75	1.75	0.50	0.50	0.00	1.25	11.75	7.50	6.00	4.75	4.25	10.50	4.00	5.75	-0.218750	0.135742	1.161133	5.110000	112.349998	-25.830000	578.00	0.210827	-0.004529	0.00	0.00	0.00	0.00	0.00	0.00	0.00	0.00	0.00	0.00	0.00	0.00	0.00	0.00	0.00	0.00	-2.422852	-0.223633	0.202148	-50.610001	48.790001	-58.939999	0.00	0.000000	0.000000
1.73	1.25	1.00	0.50	1.75	0.25	0.50	0.00	1.00	11.50	8.00	6.00	4.75	4.00	11.00	4.25	5.75	-0.242188	0.139160	1.120117	-2.310000	135.100006	-27.930000	569.00	0.225146	0.000546	0.00	0.00	0.00	0.00	0.00	0.00	0.00	0.00	0.00	0.00	0.00	0.00	0.00	0.00	0.00	0.00	-2.186523	0.026367	0.352539	-57.119999	69.930000	-88.550003	0.00	0.000000	0.000000
1.74	0.50	1.00	0.50	1.25	0.25	0.50	0.00	0.75	11.00	7.75	5.75	4.75	3.75	11.50	4.25	5.75	-0.305176	0.165039	1.134277	-7.630000	155.330002	-31.570000	545.00	0.240709	0.003903	0.00	0.00	0.00	0.00	0.00	0.00	0.00	0.00	0.00	0.00	0.00	0.00	0.00	0.00	0.00	0.00	-0.812988	0.366211	2.453613	-158.550003	128.660004	-115.010002	0.00	0.000000	0.000000
1.75	0.00	0.75	0.00	0.50	0.00	0.00	0.00	0.50	10.50	7.75	5.50	4.50	3.75	11.50	4.25	5.50	-0.328125	0.175293	1.182129	-12.880000	177.169998	-35.980000	502.00	0.269820	0.010959	0.00	0.00	0.00	0.00	0.00	0.00	0.00	0.00	0.00	0.00	0.00	0.00	0.00	0.00	0.00	0.00	2.458496	0.666992	2.008789	-165.759995	156.309998	-105.910004	0.00	0.000000	0.000000
1.76	0.00	0.00	0.00	0.00	0.00	0.00	0.00	0.25	10.00	8.25	5.50	4.50	3.25	12.25	4.25	5.00	-0.345215	0.144043	1.262695	-33.110001	228.059998	-46.200001	485.00	0.288494	0.023418	0.25	1.75	0.75	5.00	0.00	0.00	0.00	0.00	0.00	0.00	0.00	0.00	0.00	0.00	0.00	0.00	2.458496	0.666992	2.008789	-165.759995	156.309998	-105.910004	75.00	-0.314361	-0.170699
1.77	0.50	0.00	0.00	0.00	0.00	0.00	0.00	0.00	9.00	8.50	5.25	4.00	2.75	12.00	4.00	4.75	-0.345215	0.144043	1.262695	-33.110001	228.059998	-46.200001	460.00	0.285110	0.030207	7.00	6.25	7.75	10.50	0.00	0.00	0.00	0.00	0.00	0.00	0.00	0.00	0.00	0.00	0.00	0.00	0.056152	1.439941	1.215332	-64.190002	142.589996	-28.070000	303.00	-0.329499	-0.059835
1.78	0.00	0.50	0.00	0.00	0.00	0.00	0.00	0.00	8.25	8.50	5.25	3.75	2.00	11.75	4.00	4.50	-0.390625	0.184082	1.332031	-44.869999	253.820007	-49.980000	439.00	0.287613	0.031299	8.25	8.25	10.75	15.50	0.50	4.50	0.00	0.25	0.00	0.00	0.00	0.00	0.00	0.00	0.00	0.00	-1.558105	0.005371	3.399414	-74.760002	136.009995	4.410000	466.00	-0.304204	-0.088997
1.79	0.00	0.25	0.00	0.00	0.00	0.00	0.00	0.00	8.00	8.50	4.75	3.50	1.75	11.25	3.75	4.00	-0.410645	0.163574	1.234863	-54.670002	279.160004	-55.369999	416.00	0.290838	0.037859	8.50	8.25	13.00	17.00	3.00	6.25	0.00	0.50	0.00	0.00	0.00	0.00	0.00	0.00	0.00	0.00	-0.555664	0.101562	1.364746	-36.540001	11.200000	-6.510000	552.00	-0.287806	-0.085306
1.80	0.00	0.00	0.00	0.00	0.00	0.00	0.00	0.00	7.25	8.25	4.75	3.25	1.50	10.75	3.25	3.75	-0.547363	0.226562	1.479980	-68.949997	333.899994	-65.800003	388.00	0.294020	0.039193	8.75	8.00	13.50	16.75	3.75	6.75	0.00	0.50	0.00	0.00	0.00	0.25	0.00	0.00	0.00	0.00	-0.264648	0.203613	0.995605	-11.900000	-8.470000	-1.400000	570.00	-0.282178	-0.082614
1.81	0.00	0.00	0.00	0.00	0.00	0.00	0.00	0.00	6.50	7.50	4.25	3.00	1.00	10.00	3.00	3.25	-0.624023	0.295898	1.604492	-72.870003	358.820007	-74.199997	350.00	0.295782	0.043831	8.50	7.75	13.00	16.25	4.25	6.75	0.00	0.75	0.00	0.00	0.25	0.25	0.00	0.00	0.00	0.00	-0.114258	0.124512	1.019043	-7.070000	-5.740000	5.110000	567.00	-0.276081	-0.084155
1.82	0.00	0.00	0.00	0.00	0.00	0.00	0.00	0.00	5.50	7.00	4.00	2.50	0.75	9.00	2.50	2.50	-0.768555	0.377441	1.877441	-72.309998	378.700012	-84.489998	308.00	0.295423	0.047333	8.00	7.25	12.50	15.25	4.00	6.75	0.00	0.75	0.00	0.00	0.25	0.25	0.00	0.00	0.00	0.00	-0.102539	0.061035	0.958008	-3.290000	-8.120000	4.760000	540.00	-0.274458	-0.084909
1.83	0.00	0.00	0.00	0.00	0.00	0.00	0.00	0.00	5.00	6.50	3.75	2.25	0.50	7.75	2.00	2.00	-0.910156	0.421387	2.094727	-65.519997	396.829987	-93.940002	273.00	0.292770	0.051177	7.50	6.75	12.25	15.00	4.50	7.00	0.25	1.00	0.00	0.00	0.00	0.25	0.00	0.00	0.00	0.00	-0.171387	0.118164	0.977051	1.890000	-13.650000	4.060000	538.00	-0.268469	-0.085380
1.84	0.00	0.00	0.00	0.00	0.00	0.00	0.00	0.00	4.50	5.75	3.50	2.00	0.25	6.00	1.50	1.75	-1.107910	0.581055	2.502441	-27.860001	404.390015	-95.129997	234.00	0.288146	0.052045	7.50	7.25	12.75	16.00	5.50	8.25	0.25	1.25	0.00	0.25	0.25	0.50	0.00	0.00	0.00	0.00	-0.198730	0.095703	0.988770	6.300000	-17.360001	5.460000	591.00	-0.257427	-0.090456
1.85	0.00	0.00	0.00	0.00	0.00	0.00	0.00	0.00	3.75	5.25	3.00	1.50	0.25	5.00	0.75	1.50	-0.938477	0.385742	2.605957	-9.450000	401.940002	-107.029999	194.00	0.284390	0.056578	7.50	7.25	13.00	16.25	5.75	9.25	0.25	1.50	0.25	0.25	0.25	0.25	0.00	0.00	0.25	0.00	-0.193359	0.093262	0.990723	9.660000	-18.900000	7.350000	614.00	-0.250671	-0.091682
1.86	0.00	0.00	0.00	0.00	0.00	0.00	0.00	0.00	3.00	4.50	2.50	1.50	0.00	3.50	0.50	1.25	-0.687012	0.323242	2.502930	-10.150000	398.579987	-114.449997	156.00	0.279079	0.051621	7.50	7.25	13.50	16.75	6.50	9.75	0.25	2.25	0.25	0.25	0.25	0.25	0.25	0.00	0.00	0.00	-0.171387	0.122559	0.975586	12.460000	-20.090000	8.470000	647.00	-0.246177	-0.096911
1.87	0.00	0.00	0.00	0.00	0.00	0.00	0.00	0.00	2.25	4.25	1.75	1.25	0.00	2.25	0.50	1.00	-0.475098	0.349121	2.435547	-18.129999	399.559998	-120.190002	124.00	0.274583	0.045461	7.50	7.75	13.50	17.50	6.75	10.25	0.25	2.75	0.25	0.50	0.50	0.50	0.25	0.00	0.00	0.25	-0.146973	0.130859	1.022949	14.210000	-20.090000	8.470000	682.00	-0.238092	-0.103066
1.88	0.00	0.00	0.00	0.00	0.00	0.00	0.00	0.00	1.50	3.50	1.25	0.50	0.00	0.00	0.50	0.75	-0.072266	0.443848	2.038574	-28.350000	398.929993	-129.149994	77.00	0.256211	0.034798	7.50	8.25	13.50	17.25	7.00	10.75	0.25	3.25	0.25	0.50	0.50	0.50	0.50	0.00	0.00	0.25	-0.143066	0.126953	1.013184	13.790000	-15.540000	7.490000	700.00	-0.234570	-0.107516
1.89	0.00	0.00	0.00	0.00	0.00	0.00	0.00	0.00	0.75	2.25	0.75	0.00	0.00	0.00	0.25	0.50	0.252441	0.496094	1.571289	-39.060001	383.809998	-139.160004	42.00	0.000000	0.000000	7.50	8.25	13.25	17.00	6.75	11.00	0.25	3.75	0.50	0.50	0.50	0.75	0.75	0.00	0.00	0.25	-0.118652	0.132324	0.972656	14.350000	-11.900000	6.370000	709.00	-0.227473	-0.111799
1.90	0.00	0.00	0.00	0.00	0.00	0.00	0.00	0.00	0.00	1.00	0.00	0.00	0.00	0.00	0.00	0.00	0.782715	0.535156	1.381348	-38.500000	345.239990	-149.660004	10.00	0.000000	0.000000	7.50	8.00	12.75	16.50	7.00	11.00	0.25	4.25	0.50	0.50	0.50	0.75	1.50	0.00	0.00	0.25	-0.134277	0.140625	0.993164	14.980000	-10.220000	5.390000	712.00	-0.220425	-0.117344
1.91	0.00	0.00	0.00	0.00	0.00	0.00	0.00	0.00	0.00	0.50	0.00	0.00	0.00	0.00	0.00	0.00	2.241211	0.677734	2.164062	0.770000	257.670013	-168.419998	5.00	0.000000	0.000000	7.50	7.75	12.25	16.25	7.00	11.00	0.25	4.75	0.50	0.50	0.75	0.75	1.50	0.00	0.25	0.25	-0.161133	0.147461	1.010254	13.440001	-7.560000	4.760000	714.00	-0.213647	-0.120847
1.92	0.00	0.00	0.00	0.00	0.00	0.00	0.00	0.00	0.00	0.50	0.00	0.00	0.00	0.00	0.00	0.00	0.826172	0.714844	2.642578	98.980003	-51.799999	-123.620003	5.00	0.000000	0.000000	7.50	7.75	12.00	16.00	7.00	10.50	0.25	4.75	0.50	0.50	0.75	1.00	1.75	0.00	0.25	0.50	-0.160645	0.146484	1.023438	10.570000	-5.040000	4.270000	710.00	-0.210108	-0.122059
1.93	0.00	0.00	0.00	0.00	0.00	0.00	0.00	0.00	0.00	0.25	0.00	0.00	0.00	0.00	0.00	0.00	0.826172	0.714844	2.642578	98.980003	-51.799999	-123.620003	2.00	0.000000	0.000000	7.50	7.25	11.50	15.25	6.75	10.50	0.25	5.25	0.50	0.50	0.75	1.00	2.25	0.00	0.25	0.50	-0.147461	0.154785	1.021973	7.770000	-2.730000	3.640000	702.00	-0.203821	-0.127489
1.94	0.00	0.00	0.00	0.00	0.00	0.00	0.00	0.00	0.00	0.25	0.00	0.00	0.00	0.00	0.00	0.00	1.110840	0.275879	1.280762	45.849998	-154.559998	-79.519997	2.00	0.000000	0.000000	7.25	6.75	11.25	14.75	6.75	10.25	0.25	4.75	0.50	0.50	0.75	1.25	2.50	0.25	0.25	0.75	-0.147949	0.154297	1.028809	5.250000	-0.700000	2.730000	686.00	-0.197792	-0.125987
1.95	0.00	0.00	0.00	0.00	0.00	0.00	0.00	0.00	0.00	0.00	0.00	0.00	0.00	0.00	0.00	0.00	0.402832	0.685547	0.787109	-48.090000	-195.160004	-16.240000	0.00	0.000000	0.000000	7.00	6.50	10.75	14.25	6.75	10.25	0.25	4.75	0.50	0.50	0.75	1.50	2.50	0.00	0.25	1.00	-0.150391	0.139160	1.010254	2.520000	2.590000	1.050000	673.00	-0.194477	-0.129420
1.96	0.00	0.00	0.00	0.00	0.00	0.00	0.00	0.00	0.00	0.00	0.00	0.00	0.00	0.00	0.00	0.00	0.522461	0.784668	0.689453	-39.830002	-196.070007	12.810000	0.00	0.000000	0.000000	7.00	6.25	10.50	14.00	6.25	9.75	0.25	4.75	0.50	0.75	0.75	1.50	2.50	0.00	0.25	1.00	-0.150391	0.139160	1.010254	2.520000	2.590000	1.050000	658.00	-0.192412	-0.129459
1.97	0.00	0.00	0.00	0.00	0.00	0.00	0.00	0.00	0.00	0.00	0.00	0.00	0.00	0.00	0.00	0.00	0.530273	0.762695	0.758789	-5.740000	-209.229996	37.730000	0.00	0.000000	0.000000	6.75	6.00	10.00	13.00	6.00	9.50	0.25	4.25	0.50	0.75	0.75	1.50	2.75	0.00	0.50	1.25	-0.149902	0.138672	0.999512	2.100000	3.500000	0.840000	632.00	-0.186657	-0.129020
1.98	0.00	0.00	0.00	0.00	0.00	0.00	0.00	0.00	0.00	0.00	0.00	0.00	0.00	0.00	0.00	0.00	0.425781	0.649414	0.825195	33.320000	-227.779999	61.459999	0.00	0.000000	0.000000	6.00	5.75	9.75	12.25	5.75	9.00	0.25	4.25	0.75	0.75	0.75	1.50	3.00	0.25	0.25	1.25	-0.149414	0.151855	0.998047	1.750000	3.990000	0.700000	610.00	-0.179394	-0.129313
1.99	0.00	0.00	0.00	0.00	0.00	0.00	0.00	0.00	0.00	0.00	0.00	0.00	0.00	0.00	0.00	0.00	0.364746	0.496094	0.792480	59.220001	-242.619995	82.739998	0.00	0.000000	0.000000	5.50	5.25	9.25	11.25	5.50	8.75	0.25	4.25	0.75	0.75	0.75	1.75	3.00	0.25	0.50	1.25	-0.153809	0.154297	1.001465	-0.000000	4.480000	-0.560000	586.00	-0.169604	-0.131939
2.00	0.00	0.00	0.00	0.00	0.00	0.00	0.00	0.00	0.00	0.00	0.00	0.00	0.00	0.00	0.00	0.00	0.287598	0.348145	0.779297	68.809998	-250.880005	100.169998	0.00	0.000000	0.000000	5.25	4.75	9.00	10.50	5.25	8.25	0.25	4.00	1.00	0.75	1.00	2.00	3.00	0.25	0.25	1.50	-0.153809	0.154297	1.001465	-0.000000	4.480000	-0.560000	565.00	-0.161839	-0.129563
2.01	0.00	0.00	0.00	0.00	0.00	0.00	0.00	0.00	0.00	0.00	0.00	0.00	0.00	0.00	0.00	0.00	0.214844	0.222168	0.790039	66.430000	-253.259995	112.980003	0.00	0.000000	0.000000	4.75	4.25	8.50	9.75	5.00	7.00	0.25	4.00	1.00	0.75	1.00	2.00	3.25	0.25	0.25	1.50	-0.150391	0.147949	1.002930	-0.700000	4.410000	-0.770000	530.00	-0.154030	-0.130946
2.02	0.00	0.00	0.00	0.00	0.00	0.00	0.00	0.00	0.00	0.00	0.00	0.00	0.00	0.00	0.00	0.00	0.178711	0.120117	0.856445	58.520000	-253.889999	120.889999	0.00	0.000000	0.000000	4.50	4.00	8.00	8.75	5.00	7.00	0.25	4.00	1.00	0.75	1.00	2.25	3.25	0.25	0.50	1.50	-0.154785	0.144531	0.996094	-0.140000	3.010000	-0.140000	515.00	-0.143781	-0.132798
2.03	0.00	0.00	0.00	0.00	0.00	0.00	0.00	0.00	0.00	0.00	0.00	0.00	0.00	0.00	0.00	0.00	0.142578	0.059082	0.965332	52.220001	-257.179993	123.340004	0.00	0.000000	0.000000	4.00	3.75	7.75	8.25	4.50	6.75	0.25	3.75	0.75	1.25	1.00	2.50	3.50	0.50	0.50	1.50	-0.162598	0.144043	0.990723	-0.280000	2.450000	0.210000	498.00	-0.132744	-0.136069
2.04	0.00	0.00	0.00	0.00	0.00	0.00	0.00	0.00	0.00	0.00	0.00	0.00	0.00	0.00	0.00	0.00	0.118164	0.015137	1.066895	50.540001	-265.299988	121.660004	0.00	0.000000	0.000000	4.25	3.50	7.50	7.75	4.25	6.25	0.25	3.75	1.00	1.50	1.00	2.25	3.50	0.50	0.50	1.75	-0.162598	0.144043	0.990723	-0.280000	2.450000	0.210000	488.00	-0.126601	-0.130807
2.05	0.00	0.00	0.00	0.00	0.00	0.00	0.00	0.00	0.00	0.00	0.00	0.00	0.00	0.00	0.00	0.00	0.075684	-0.027832	1.165527	52.009998	-275.309998	116.970001	0.00	0.000000	0.000000	4.25	3.50	6.75	7.25	4.25	5.75	0.25	3.75	1.00	1.75	1.00	2.50	3.25	0.50	0.50	1.75	-0.150391	0.147461	0.993652	-1.330000	2.590000	0.420000	473.00	-0.120064	-0.130344
2.06	0.00	0.00	0.00	0.00	0.00	0.00	0.00	0.00	0.00	0.00	0.00	0.00	0.00	0.00	0.00	0.00	0.027832	-0.051270	1.245117	54.810001	-285.739990	111.510002	0.00	0.000000	0.000000	3.75	3.50	6.25	7.00	3.50	5.50	0.25	3.75	1.00	1.50	1.25	2.50	3.25	0.50	0.50	1.75	-0.158203	0.151367	0.990723	-1.960000	2.730000	0.350000	450.00	-0.114305	-0.138189
2.07	0.00	0.00	0.00	0.00	0.00	0.00	0.00	0.00	0.00	0.00	0.00	0.00	0.00	0.00	0.00	0.00	-0.040527	-0.050781	1.322754	55.720001	-294.630005	106.959999	0.00	0.000000	0.000000	3.75	3.25	6.00	6.25	3.50	5.25	0.25	3.50	1.25	1.25	1.50	2.50	3.75	0.50	0.50	1.75	-0.165527	0.146973	0.994629	-2.730000	2.870000	0.210000	439.00	-0.104565	-0.136220
2.08	0.00	0.00	0.00	0.00	0.00	0.00	0.00	0.00	0.00	0.00	0.00	0.00	0.00	0.00	0.00	0.00	-0.144531	-0.023438	1.397461	54.670002	-302.750000	106.260002	0.00	0.000000	0.000000	3.50	3.00	5.50	6.25	3.50	4.75	0.25	3.50	1.75	1.75	1.75	2.75	3.75	0.50	0.50	2.00	-0.158203	0.136719	0.989746	-3.220000	3.150000	0.140000	441.00	-0.085647	-0.131997
2.09	0.00	0.00	0.00	0.00	0.00	0.00	0.00	0.00	0.00	0.00	0.00	0.00	0.00	0.00	0.00	0.00	-0.328125	0.015625	1.445801	51.939999	-309.750000	110.529999	0.00	0.000000	0.000000	3.25	2.75	5.00	6.25	3.25	4.50	0.00	3.50	1.75	2.00	1.75	2.75	3.75	0.50	0.50	2.00	-0.164551	0.149414	0.987793	-3.080000	3.640000	-0.210000	426.00	-0.079002	-0.138110
2.10	0.00	0.00	0.00	0.00	0.00	0.00	0.00	0.00	0.00	0.00	0.00	0.00	0.00	0.00	0.00	0.00	-0.531738	0.049805	1.455566	49.209999	-314.299988	119.489998	0.00	0.000000	0.000000	3.25	2.50	4.75	6.00	3.00	4.25	0.00	3.50	1.75	2.00	1.75	2.75	3.75	0.50	0.50	2.25	-0.166016	0.143555	0.994141	-3.080000	4.900000	-0.630000	415.00	-0.072840	-0.139768
2.11	0.00	0.00	0.00	0.00	0.00	0.00	0.00	0.00	0.00	0.00	0.00	0.00	0.00	0.00	0.00	0.00	-0.761719	0.037109	1.419922	46.480000	-314.440002	132.720001	0.00	0.000000	0.000000	2.50	2.00	4.50	5.25	2.50	4.25	0.25	3.25	2.75	2.00	2.00	3.00	4.00	0.50	0.75	2.25	-0.164062	0.141602	0.989258	-2.800000	6.300000	-1.400000	410.00	-0.039971	-0.130646
2.12	0.00	0.00	0.00	0.00	0.00	0.00	0.00	0.00	0.00	0.00	0.00	0.00	0.00	0.00	0.00	0.00	-1.387695	0.018555	1.439941	37.310001	-302.470001	156.660004	0.00	0.000000	0.000000	2.25	1.75	4.25	4.50	2.25	4.25	0.25	3.00	3.25	2.75	2.25	3.00	4.00	0.50	0.75	2.50	-0.161621	0.147949	0.999512	-2.170000	8.050000	-2.450000	406.00	-0.017502	-0.121528
2.13	0.00	0.00	0.00	0.00	0.00	0.00	0.00	0.00	0.00	0.00	0.00	0.00	0.00	0.00	0.00	0.00	-1.781738	0.056641	1.435059	31.080000	-294.769989	163.589996	0.00	0.000000	0.000000	2.00	1.00	4.00	3.50	2.25	3.75	0.00	3.00	3.25	2.75	2.75	3.50	4.00	0.50	1.00	2.75	-0.175781	0.152344	0.998047	-1.610000	10.290000	-3.570000	389.00	0.010373	-0.124705
2.14	0.00	0.00	0.00	0.00	0.00	0.00	0.00	0.00	0.00	0.00	0.00	0.00	0.00	0.00	0.00	0.00	-2.228027	0.122070	1.341797	24.920000	-286.089996	167.160004	0.00	0.000000	0.000000	1.50	1.25	3.00	3.25	2.00	3.00	0.00	3.00	4.50	3.25	3.00	3.75	4.00	0.75	1.25	3.25	-0.166992	0.151855	1.000977	-1.050000	12.670000	-4.830000	396.00	0.047192	-0.114057
2.15	0.00	0.00	0.00	0.00	0.00	0.00	0.00	0.00	0.00	0.00	0.00	0.00	0.00	0.00	0.00	0.00	-2.735840	0.174805	1.155273	21.350000	-274.049988	165.830002	0.00	0.000000	0.000000	0.50	1.00	2.50	2.50	1.25	2.25	0.00	3.00	5.00	3.75	3.75	4.00	4.50	1.00	1.25	3.50	-0.167969	0.152344	1.005859	-0.630000	15.330000	-6.860000	384.00	0.092981	-0.115845
2.16	0.00	0.00	0.00	0.00	0.00	0.00	0.00	0.00	0.00	0.00	0.00	0.00	0.00	0.00	0.00	0.00	-3.259277	0.117676	0.888184	15.750000	-252.630005	159.740005	0.00	0.000000	0.000000	0.50	0.25	2.00	2.00	1.00	1.50	0.00	2.50	5.50	4.00	3.75	4.50	4.75	1.25	1.75	4.25	-0.161133	0.177734	1.026855	-0.980000	19.040001	-9.450000	376.00	0.133495	-0.106103
2.17	0.00	0.00	0.00	0.00	0.00	0.00	0.00	0.00	0.00	0.00	0.00	0.00	0.00	0.00	0.00	0.00	-3.735352	-0.016113	0.624512	6.090000	-217.350006	148.960007	0.00	0.000000	0.000000	0.00	0.75	1.50	1.50	0.75	1.00	0.00	2.50	5.50	4.75	4.50	4.75	4.75	1.75	2.75	4.75	-0.165527	0.175781	1.036133	-1.470000	24.010000	-12.460000	391.00	0.165102	-0.105479
2.18	0.00	0.00	0.00	0.00	0.00	0.00	0.00	0.00	0.00	0.00	0.00	0.00	0.00	0.00	0.00	0.00	-4.070312	-0.077637	0.474121	-0.210000	-174.440002	133.070007	0.00	0.000000	0.000000	0.00	0.25	0.75	0.75	0.50	0.50	0.00	2.00	6.25	5.25	4.75	5.00	4.75	2.25	3.25	5.00	-0.176758	0.187500	1.058594	-0.980000	31.430000	-16.450001	386.00	0.207891	-0.087955
2.19	0.00	0.00	0.00	0.00	0.00	0.00	0.00	0.00	0.00	0.00	0.00	0.00	0.00	0.00	0.00	0.00	-4.172852	-0.204590	0.322754	3.360000	-131.949997	117.879997	0.00	0.000000	0.000000	0.00	0.25	0.25	0.00	0.00	0.50	0.00	2.00	7.25	5.50	5.00	5.00	4.75	2.75	3.50	5.50	-0.220215	0.185547	1.121094	1.400000	42.840000	-21.700001	394.00	0.233758	-0.076533
2.20	0.00	0.00	0.00	0.00	0.00	0.00	0.00	0.00	0.00	0.00	0.00	0.00	0.00	0.00	0.00	0.00	-3.949219	-0.179199	0.215820	1.400000	-88.620003	107.870003	0.00	0.000000	0.000000	0.00	0.00	0.00	0.00	0.00	0.50	0.00	1.50	7.50	6.50	5.25	5.00	4.50	3.75	3.75	5.75	-0.211426	0.133789	1.225098	2.100000	66.220001	-23.450001	406.00	0.249934	-0.060060
2.21	0.00	0.00	0.00	0.00	0.00	0.00	0.00	0.00	0.00	0.00	0.00	0.00	0.00	0.00	0.00	0.00	-3.657227	-0.266602	0.138184	-12.320000	-49.770000	101.010002	0.00	0.000000	0.000000	0.00	0.00	0.00	0.00	0.00	0.25	0.00	1.25	8.00	6.50	5.25	5.00	4.50	4.50	4.25	6.00	-0.216309	0.200684	1.239258	0.420000	97.790001	-25.480000	418.00	0.259029	-0.048934
2.22	0.00	0.00	0.00	0.00	0.00	0.00	0.00	0.00	0.00	0.00	0.00	0.00	0.00	0.00	0.00	0.00	-4.389160	-1.170898	1.158691	-85.050003	78.190002	62.439999	0.00	0.000000	0.000000	0.00	0.00	0.00	0.00	0.00	0.00	0.00	0.75	8.50	6.50	5.25	5.00	4.00	5.00	4.75	6.25	-0.240234	0.182129	1.221680	-10.150000	130.059998	-29.120001	421.00	0.270181	-0.032499
2.23	0.25	0.25	0.00	0.00	0.00	0.00	0.00	0.00	0.00	0.00	0.00	0.00	0.00	0.00	0.00	0.00	-3.762207	0.628418	-1.503418	-22.120001	124.949997	36.540001	4.00	0.000000	0.000000	0.00	0.00	0.00	0.00	0.00	0.00	0.00	0.50	8.00	6.50	5.25	5.00	3.75	5.00	4.75	6.00	-0.333008	0.232422	1.354004	-22.469999	202.089996	-40.950001	408.00	0.273009	-0.030981
2.24	2.25	1.25	1.25	3.50	0.00	0.00	0.00	0.00	0.00	0.00	0.00	0.00	0.00	0.00	0.00	0.00	-0.890625	-0.079590	1.536133	28.910000	238.630005	28.559999	80.00	-0.332037	-0.077623	0.00	0.00	0.00	0.00	0.00	0.00	0.00	0.25	7.50	6.25	5.00	4.75	3.50	5.25	4.75	5.50	-0.333008	0.232422	1.354004	-22.469999	202.089996	-40.950001	389.00	0.277394	-0.025799
2.25	4.00	4.75	5.00	8.00	0.25	0.00	0.00	0.00	0.00	0.00	0.00	0.00	0.00	0.00	0.00	0.00	-3.486328	1.383789	3.861816	74.830002	301.350006	25.480000	212.00	-0.325424	-0.074918	0.00	0.00	0.00	0.00	0.00	0.00	0.00	0.25	7.25	6.25	4.75	4.50	2.75	5.25	4.50	5.00	-0.372070	0.280762	1.451172	-28.280001	245.279999	-49.279999	370.00	0.278693	-0.016530
2.26	6.50	7.25	10.25	12.00	1.75	4.00	0.00	0.50	0.00	0.00	0.00	0.00	0.00	0.00	0.00	0.00	-0.594238	-0.011719	0.660156	64.820000	21.910000	24.710001	412.00	-0.293734	-0.081756	0.00	0.00	0.00	0.00	0.00	0.00	0.00	0.00	7.00	5.75	4.50	4.25	2.25	5.25	4.25	4.25	-0.370605	0.241699	1.729004	-36.189999	296.170013	-59.849998	344.00	0.282705	-0.004873
2.27	7.50	9.00	11.75	13.00	2.75	4.50	0.00	1.25	0.00	0.50	0.00	0.00	0.50	0.00	0.00	0.00	0.030762	-0.062012	1.012695	13.790000	-32.340000	2.730000	496.00	-0.278878	-0.085437	0.00	0.00	0.00	0.00	0.00	0.00	0.00	0.00	6.75	5.50	4.25	3.75	2.00	5.00	3.75	3.25	-0.486328	0.573730	2.012695	-68.809998	407.959991	-84.910004	318.00	0.281654	0.005017
2.28	8.00	9.00	12.75	13.75	3.25	5.50	0.25	2.00	0.50	0.75	0.25	0.25	0.25	0.00	0.00	0.00	-0.117676	0.104004	0.967773	13.160000	-14.420000	3.990000	558.00	-0.258316	-0.083371	0.00	0.00	0.00	0.00	0.00	0.00	0.00	0.00	6.25	5.25	3.75	3.25	1.50	4.75	3.25	2.75	-0.486328	0.573730	2.012695	-68.809998	407.959991	-84.910004	286.00	0.282576	0.015564
2.29	8.00	8.75	13.00	14.00	4.50	6.50	0.25	2.75	0.75	1.00	0.50	0.50	0.50	0.00	0.25	0.25	-0.117676	0.104004	0.967773	13.160000	-14.420000	3.990000	610.00	-0.235723	-0.088673	0.00	0.00	0.00	0.00	0.00	0.00	0.00	0.00	5.25	4.75	3.00	3.00	1.00	4.00	2.50	2.00	-0.640137	0.866211	2.308105	-72.099998	453.600006	-112.279999	239.00	0.280881	0.020841
2.30	7.25	8.25	12.75	13.50	4.50	6.75	0.25	3.50	0.75	1.00	0.50	0.75	0.75	0.00	0.25	0.50	-0.178711	0.123535	0.945801	16.170000	-3.570000	2.870000	610.00	-0.223501	-0.098500	0.00	0.00	0.00	0.00	0.00	0.00	0.00	0.00	5.00	4.00	2.50	2.50	1.00	2.75	1.50	1.50	-1.168945	1.296387	3.455566	-8.610000	479.010010	-160.229996	198.00	0.272119	0.028009
2.31	6.75	8.00	12.25	13.25	4.50	7.25	0.25	4.00	0.75	1.00	0.50	1.00	1.00	0.00	0.25	0.50	-0.192871	0.113770	0.992188	21.139999	-4.620000	5.460000	612.00	-0.214862	-0.107637	0.00	0.00	0.00	0.00	0.00	0.00	0.00	0.00	3.75	3.25	1.75	1.75	0.50	1.50	1.00	1.25	-0.601562	1.204102	3.268555	29.120001	461.019989	-188.229996	141.00	0.268820	0.034291
2.32	6.75	8.00	12.25	13.75	4.50	8.25	0.25	4.25	0.75	1.00	1.00	1.00	2.00	0.00	0.25	0.50	-0.180664	0.166016	0.986816	24.010000	-5.250000	6.510000	643.00	-0.205311	-0.117103	0.00	0.00	0.00	0.00	0.00	0.00	0.00	0.00	2.75	2.25	1.25	1.25	0.25	1.00	0.50	1.00	-0.586914	1.036621	2.795410	67.480003	433.580017	-215.040009	98.00	0.266506	0.040240
2.33	6.50	8.50	11.75	13.75	5.00	9.00	0.25	4.75	0.75	1.00	1.00	1.00	2.75	0.00	0.25	0.50	-0.125977	0.154297	0.975098	25.059999	-4.340000	6.790000	665.00	-0.198892	-0.126177	0.00	0.00	0.00	0.00	0.00	0.00	0.00	0.00	1.75	1.50	0.75	0.75	0.00	0.00	0.50	0.50	0.349609	1.274414	2.684082	95.550003	408.940002	-245.699997	57.00	0.259602	0.043934
2.34	6.50	8.50	11.50	13.50	4.50	9.25	0.25	5.25	0.75	1.25	1.00	1.50	3.25	0.00	0.50	0.50	-0.129883	0.156738	1.009277	26.670000	-2.590000	6.510000	678.00	-0.188002	-0.133631	0.00	0.00	0.00	0.00	0.00	0.00	0.00	0.00	0.50	0.50	0.00	0.00	0.00	0.00	0.25	0.00	1.546387	0.880859	1.528809	101.500000	341.950012	-279.440002	13.00	0.000000	0.000000
2.35	6.25	8.25	11.00	13.25	4.50	10.00	0.25	5.75	0.75	1.25	1.00	1.75	3.75	0.00	0.50	0.75	-0.158203	0.163574	0.984863	27.090000	-0.140000	5.810000	688.00	-0.178998	-0.142604	0.00	0.00	0.00	0.00	0.00	0.00	0.00	0.00	0.00	0.00	0.00	0.00	0.00	0.00	0.00	0.00	2.208496	1.206055	1.738770	105.840004	224.419998	-303.380005	0.00	0.000000	0.000000
2.36	6.00	8.00	10.25	12.75	4.75	9.75	0.25	6.75	0.75	1.25	1.00	1.75	4.25	0.00	0.50	1.00	-0.137207	0.180176	1.002441	26.460001	1.610000	4.970000	690.00	-0.169304	-0.151337	0.00	0.00	0.00	0.00	0.00	0.00	0.00	0.00	0.00	0.00	0.00	0.00	0.00	0.00	0.00	0.00	0.771484	1.965820	3.704590	149.240005	26.180000	-254.660004	0.00	0.000000	0.000000
2.37	5.75	7.75	9.50	12.25	4.50	9.50	0.25	7.00	0.75	1.25	1.00	2.25	5.00	0.00	0.50	1.00	-0.127441	0.177734	0.961426	24.920000	3.360000	3.780000	682.00	-0.159556	-0.159661	0.00	0.00	0.00	0.00	0.00	0.00	0.00	0.00	0.00	0.00	0.00	0.00	0.00	0.00	0.00	0.00	1.495117	1.062988	1.875977	133.559998	-98.629997	-154.000000	0.00	0.000000	0.000000
2.38	5.50	7.25	8.75	11.75	4.50	9.25	0.25	7.50	0.50	1.00	1.00	2.50	5.50	0.00	0.25	1.25	-0.126465	0.199707	0.979492	23.379999	5.040000	2.310000	667.00	-0.154454	-0.170546	0.00	0.00	0.00	0.00	0.00	0.00	0.00	0.00	0.00	0.00	0.00	0.00	0.00	0.00	0.00	0.00	1.316406	0.647461	0.446777	65.870003	-135.940002	-68.250000	0.00	0.000000	0.000000
2.39	5.00	6.75	7.75	11.25	4.25	9.00	0.25	7.50	0.75	1.00	1.50	3.25	5.75	0.00	0.50	1.50	-0.121582	0.193848	0.982422	20.510000	7.910000	0.140000	659.00	-0.135734	-0.176473	0.00	0.00	0.00	0.00	0.00	0.00	0.00	0.00	0.00	0.00	0.00	0.00	0.00	0.00	0.00	0.00	0.700684	0.918945	0.668945	15.750000	-124.389999	1.540000	0.00	0.000000	0.000000
2.40	4.75	6.00	6.25	10.25	3.75	8.50	0.25	7.50	0.50	1.50	1.50	3.25	6.50	0.00	0.50	1.50	-0.140625	0.198730	1.003418	16.730000	11.480000	-1.610000	622.00	-0.122255	-0.187644	0.00	0.00	0.00	0.00	0.00	0.00	0.00	0.00	0.00	0.00	0.00	0.00	0.00	0.00	0.00	0.00	0.742188	0.936035	0.653320	19.879999	-113.820000	59.990002	0.00	0.000000	0.000000
2.41	4.50	5.25	5.25	9.00	2.75	7.75	0.00	7.25	0.50	1.25	1.75	3.25	7.00	0.00	0.50	2.25	-0.147949	0.194336	1.008301	13.720000	13.720000	-2.590000	574.00	-0.108032	-0.201301	0.00	0.00	0.00	0.00	0.00	0.00	0.00	0.00	0.00	0.00	0.00	0.00	0.00	0.00	0.00	0.00	0.981934	0.821777	0.771484	61.389999	-127.400002	111.440002	0.00	0.000000	0.000000
2.42	4.00	4.75	4.75	8.75	2.50	7.00	0.00	7.00	0.50	1.00	2.00	3.50	7.25	0.00	0.50	2.50	-0.152832	0.196289	0.999023	10.920000	14.840000	-3.010000	550.00	-0.097368	-0.208237	0.00	0.00	0.00	0.00	0.00	0.00	0.00	0.00	0.00	0.00	0.00	0.00	0.00	0.00	0.00	0.00	0.909668	0.607422	0.950684	103.180000	-153.649994	155.470001	0.00	0.000000	0.000000
2.43	3.75	4.25	4.00	7.50	2.00	6.25	0.00	6.75	0.50	1.25	2.50	3.75	7.50	0.00	0.50	2.75	-0.161621	0.192383	0.982910	8.540000	15.750000	-2.870000	520.00	-0.077777	-0.213981	0.00	0.00	0.00	0.00	0.00	0.00	0.00	0.00	0.00	0.00	0.00	0.00	0.00	0.00	0.00	0.00	0.778320	0.334473	0.981445	126.489998	-179.899994	191.800003	0.00	0.000000	0.000000
2.44	3.50	3.75	3.50	6.25	1.50	5.25	0.00	6.50	0.50	1.50	2.50	4.00	7.25	0.00	0.75	3.50	-0.160645	0.187012	0.987305	2.450000	18.340000	-3.570000	486.00	-0.056590	-0.217371	0.00	0.00	0.00	0.00	0.00	0.00	0.00	0.00	0.00	0.00	0.00	0.00	0.00	0.00	0.00	0.00	0.588867	0.023926	0.993652	124.110001	-200.059998	217.559998	0.00	0.000000	0.000000
2.45	3.50	3.50	3.00	5.00	1.25	4.75	0.00	6.00	0.50	1.50	2.75	4.00	7.00	0.25	0.75	3.75	-0.160645	0.187012	0.987305	2.450000	18.340000	-3.570000	456.00	-0.041837	-0.216071	0.00	0.00	0.00	0.00	0.00	0.00	0.00	0.00	0.00	0.00	0.00	0.00	0.00	0.00	0.00	0.00	0.452637	-0.222168	0.994141	102.410004	-213.919998	229.320007	0.00	0.000000	0.000000
2.46	3.00	3.25	2.25	4.00	1.00	4.50	0.00	5.75	0.50	1.50	3.00	4.50	7.00	0.00	1.00	3.75	-0.159668	0.182129	0.969727	-0.630000	20.299999	-3.710000	430.00	-0.020686	-0.226348	0.00	0.00	0.00	0.00	0.00	0.00	0.00	0.00	0.00	0.00	0.00	0.00	0.00	0.00	0.00	0.00	0.363281	-0.372559	1.018066	74.900002	-226.380005	227.009995	0.00	0.000000	0.000000
2.47	1.75	2.25	1.75	3.50	0.50	4.25	0.00	5.50	0.50	2.00	3.25	4.50	7.25	0.00	1.25	4.00	-0.148438	0.185547	0.991699	-1.680000	21.980000	-3.360000	402.00	0.016622	-0.239860	0.00	0.00	0.00	0.00	0.00	0.00	0.00	0.00	0.00	0.00	0.00	0.00	0.00	0.00	0.00	0.00	0.280273	-0.464355	1.052246	53.760002	-241.220001	212.520004	0.00	0.000000	0.000000
2.48	1.00	1.75	1.00	3.25	0.25	4.00	0.00	5.25	0.50	2.00	3.50	5.00	7.75	0.25	1.00	4.25	-0.151367	0.187500	1.011719	1.750000	29.680000	-2.800000	384.00	0.045006	-0.255488	0.00	0.00	0.00	0.00	0.00	0.00	0.00	0.00	0.00	0.00	0.00	0.00	0.00	0.00	0.00	0.00	0.171387	-0.511719	1.118164	43.400002	-258.299988	188.229996	0.00	0.000000	0.000000
2.49	0.50	1.00	0.25	2.75	0.50	3.50	0.00	5.00	0.50	2.00	3.75	5.25	8.00	0.50	1.25	4.50	-0.160156	0.200684	0.993652	6.300000	36.049999	-3.850000	367.00	0.080175	-0.262869	0.00	0.00	0.00	0.00	0.00	0.00	0.00	0.00	0.00	0.00	0.00	0.00	0.00	0.00	0.00	0.00	0.067383	-0.546875	1.185547	41.439999	-274.890015	158.059998	0.00	0.000000	0.000000
2.50	0.00	0.50	0.00	1.50	0.00	2.00	0.00	4.50	0.25	2.00	4.00	5.25	8.00	0.50	2.00	4.75	-0.167480	0.212891	0.980469	9.240000	40.810001	-6.370000	324.00	0.134422	-0.275641	0.00	0.00	0.00	0.00	0.00	0.00	0.00	0.00	0.00	0.00	0.00	0.00	0.00	0.00	0.00	0.00	0.001953	-0.570801	1.242676	40.810001	-289.450012	126.699997	0.00	0.000000	0.000000
2.51	0.00	0.00	0.00	0.50	0.00	1.50	0.00	4.25	0.25	2.50	4.25	5.75	7.75	0.50	2.00	5.25	-0.176758	0.195801	0.970703	8.750000	44.099998	-8.820000	313.00	0.166500	-0.270523	0.00	0.00	0.00	0.00	0.00	0.00	0.00	0.00	0.00	0.00	0.00	0.00	0.00	0.00	0.00	0.00	-0.179199	-0.491211	1.386719	30.730000	-310.799988	70.980003	0.00	0.000000	0.000000
2.52	0.00	0.00	0.00	0.50	0.00	1.25	0.00	4.00	0.50	2.50	4.75	6.25	7.75	1.00	2.50	6.00	-0.183105	0.210449	0.965332	6.790000	47.320000	-10.990000	333.00	0.181574	-0.254948	0.00	0.00	0.00	0.00	0.00	0.00	0.00	0.00	0.00	0.00	0.00	0.00	0.00	0.00	0.00	0.00	-0.179199	-0.491211	1.386719	30.730000	-310.799988	70.980003	0.00	0.000000	0.000000
2.53	0.00	0.00	0.00	0.00	0.00	1.00	0.00	4.00	0.50	2.75	4.75	6.25	7.50	1.25	2.50	6.75	-0.207520	0.216797	0.967773	3.640000	48.299999	-12.880000	331.00	0.195055	-0.249841	0.00	0.00	0.00	0.00	0.00	0.00	0.00	0.00	0.00	0.00	0.00	0.00	0.00	0.00	0.00	0.00	-0.311523	-0.404785	1.445312	27.090000	-319.480011	49.560001	0.00	0.000000	0.000000
2.54	0.00	0.00	0.00	0.00	0.00	0.50	0.00	3.75	0.75	3.00	5.25	6.75	7.25	2.00	2.50	7.25	-0.212402	0.202637	0.971680	-0.210000	48.369999	-14.280000	344.00	0.208663	-0.232071	0.00	0.00	0.00	0.00	0.00	0.00	0.00	0.00	0.00	0.00	0.00	0.00	0.00	0.00	0.00	0.00	-0.505371	-0.304688	1.497070	26.600000	-327.390015	33.320000	0.00	0.000000	0.000000
2.55	0.00	0.00	0.00	0.00	0.00	0.50	0.00	3.00	0.75	3.25	5.25	7.00	6.75	3.00	3.25	8.25	-0.208984	0.213867	0.969727	-3.570000	49.279999	-15.400000	355.00	0.226490	-0.212292	0.00	0.00	0.00	0.00	0.00	0.00	0.00	0.00	0.00	0.00	0.00	0.00	0.00	0.00	0.00	0.00	-1.008789	-0.024902	1.605469	22.400000	-340.269989	24.219999	0.00	0.000000	0.000000
2.56	0.00	0.00	0.00	0.00	0.00	0.50	0.00	2.50	0.75	3.75	5.75	7.00	6.50	3.25	3.50	8.25	-0.214844	0.218262	0.983398	-6.020000	51.099998	-16.870001	360.00	0.233831	-0.199511	0.00	0.00	0.00	0.00	0.00	0.00	0.00	0.00	0.00	0.00	0.00	0.00	0.00	0.00	0.00	0.00	-1.008789	-0.024902	1.605469	22.400000	-340.269989	24.219999	0.00	0.000000	0.000000
2.57	0.00	0.00	0.00	0.00	0.00	0.00	0.00	2.00	1.25	4.00	6.00	7.00	6.50	4.00	4.00	8.50	-0.230957	0.206543	0.994141	-8.330000	54.250000	-18.690001	370.00	0.249519	-0.177913	0.00	0.00	0.00	0.00	0.00	0.00	0.00	0.00	0.00	0.00	0.00	0.00	0.00	0.00	0.00	0.00	-1.331055	0.131348	1.644531	14.350000	-343.000000	33.459999	0.00	0.000000	0.000000
2.58	0.00	0.00	0.00	0.00	0.00	0.00	0.00	1.75	2.25	4.25	6.00	7.25	6.25	5.00	4.25	9.00	-0.242676	0.202148	0.972656	-10.500000	58.799999	-20.160000	394.00	0.257021	-0.153352	0.00	0.00	0.00	0.00	0.00	0.00	0.00	0.00	0.00	0.00	0.00	0.00	0.00	0.00	0.00	0.00	-2.298340	0.452637	1.638672	-9.590000	-330.260010	60.900002	0.00	0.000000	0.000000
2.59	0.00	0.00	0.00	0.00	0.00	0.00	0.00	1.25	3.00	4.25	6.00	7.25	5.75	5.50	4.75	9.00	-0.247070	0.191895	0.984375	-11.480000	62.720001	-21.280001	401.00	0.265872	-0.132500	0.00	0.00	0.00	0.00	0.00	0.00	0.00	0.00	0.00	0.00	0.00	0.00	0.00	0.00	0.00	0.00	-2.800781	0.561523	1.457520	-17.990000	-312.339996	72.519997	0.00	0.000000	0.000000
2.60	0.00	0.00	0.00	0.00	0.00	0.00	0.00	1.25	3.75	4.50	6.25	7.25	5.75	6.75	5.00	9.25	-0.263184	0.195801	1.015625	-12.180000	68.250000	-22.260000	428.00	0.269734	-0.115963	0.00	0.00	0.00	0.00	0.00	0.00	0.00	0.00	0.00	0.00	0.00	0.00	0.00	0.00	0.00	0.00	-3.239258	0.598145	1.139648	-17.080000	-284.200012	83.370003	0.00	0.000000	0.000000
2.61	0.00	0.00	0.00	0.00	0.00	0.00	0.00	1.00	4.25	5.00	6.25	7.00	5.50	7.75	4.75	9.25	-0.272949	0.234375	1.026855	-15.120000	76.160004	-24.080000	437.00	0.274082	-0.098817	0.00	0.00	0.00	0.00	0.00	0.00	0.00	0.00	0.00	0.00	0.00	0.00	0.00	0.00	0.00	0.00	-3.626465	0.546875	0.778320	-4.480000	-246.050003	92.680000	0.00	0.000000	0.000000
2.62	0.00	0.00	0.00	0.00	0.00	0.00	0.00	0.50	5.00	5.25	6.25	6.75	5.25	8.75	5.25	9.25	-0.306152	0.207031	1.034668	-19.110001	85.540001	-27.299999	449.00	0.282660	-0.078307	0.00	0.00	0.00	0.00	0.00	0.00	0.00	0.00	0.00	0.00	0.00	0.00	0.00	0.00	0.00	0.00	-3.862305	0.402344	0.414551	20.230000	-195.089996	103.739998	0.00	0.000000	0.000000
2.63	0.00	0.00	0.00	0.00	0.00	0.00	0.00	0.50	5.50	5.50	6.25	6.25	5.00	9.75	5.25	9.00	-0.337891	0.154297	1.022461	-23.100000	95.059998	-28.630001	457.00	0.285408	-0.063970	0.00	0.00	0.00	0.00	0.00	0.00	0.00	0.00	0.00	0.00	0.00	0.00	0.00	0.00	0.00	0.00	-3.962891	0.128906	0.217285	48.369999	-132.789993	114.870003	0.00	0.000000	0.000000
2.64	0.00	0.00	0.00	0.00	0.00	0.00	0.00	0.50	5.75	5.75	6.00	6.00	4.50	10.50	5.25	8.75	-0.347656	0.153809	1.115234	-30.450001	121.520004	-25.830000	458.00	0.288145	-0.052379	0.00	0.00	0.00	0.00	0.00	0.00	0.00	0.00	0.00	0.00	0.00	0.00	0.00	0.00	0.00	0.00	-3.907227	-0.166992	0.187012	66.360001	-65.379997	120.120003	0.00	0.000000	0.000000
2.65	0.00	0.00	0.00	0.00	0.00	0.00	0.00	0.25	6.00	6.00	6.00	5.75	4.00	11.00	5.50	8.50	-0.347656	0.153809	1.115234	-30.450001	121.520004	-25.830000	459.00	0.292922	-0.039728	0.00	0.00	0.00	0.00	0.00	0.00	0.00	0.00	0.00	0.00	0.00	0.00	0.00	0.00	0.00	0.00	-3.705078	-0.408691	0.235352	63.770000	-1.400000	113.959999	0.00	0.000000	0.000000
2.66	0.00	0.00	0.00	0.00	0.00	0.00	0.00	0.00	7.25	6.25	5.75	5.50	3.75	11.75	5.50	8.25	-0.386719	0.147461	1.223633	-45.430000	168.910004	-27.440001	471.00	0.296369	-0.019695	0.00	0.00	0.00	0.00	0.00	0.00	0.00	0.00	0.00	0.00	0.00	0.00	0.00	0.00	0.00	0.00	-3.392578	-0.578613	0.322754	47.320000	51.590000	91.279999	0.00	0.000000	0.000000
2.67	0.00	0.00	0.00	0.00	0.00	0.00	0.00	0.00	7.25	6.50	5.50	5.25	3.50	12.00	5.50	7.25	-0.406738	0.141602	1.203613	-50.330002	193.690002	-28.630001	463.00	0.297275	-0.011424	0.00	0.00	0.00	0.00	0.00	0.00	0.00	0.00	0.00	0.00	0.00	0.00	0.00	0.00	0.00	0.00	-2.986328	-0.605469	0.449707	31.850000	86.870003	49.910000	0.00	0.000000	0.000000
2.68	0.00	0.00	0.00	0.00	0.00	0.00	0.00	0.00	7.25	6.50	5.25	4.75	3.00	12.25	5.25	7.00	-0.451660	0.161133	1.202148	-53.689999	219.380005	-30.309999	450.00	0.299492	-0.001792	0.00	0.00	0.00	0.00	0.00	0.00	0.00	0.00	0.00	0.00	0.00	0.00	0.00	0.00	0.00	0.00	-2.480957	-0.568848	0.519531	28.490000	103.529999	-2.100000	0.00	0.000000	0.000000
2.69	0.00	0.00	0.00	0.00	0.00	0.00	0.00	0.00	6.50	6.75	5.25	4.50	2.50	12.00	5.25	6.00	-0.462402	0.187500	1.282715	-56.420002	246.750000	-34.299999	430.00	0.300584	0.001528	0.00	0.00	0.00	0.00	0.00	0.00	0.00	0.00	0.00	0.00	0.00	0.00	0.00	0.00	0.00	0.00	-1.842773	-0.542480	0.514648	34.160000	106.959999	-50.610001	0.00	0.000000	0.000000
2.70	0.00	0.00	0.00	0.00	0.00	0.00	0.00	0.00	6.00	6.75	4.75	4.25	2.00	11.50	5.00	5.25	-0.532227	0.222168	1.297852	-56.000000	272.929993	-40.180000	403.00	0.301708	0.006961	0.00	0.00	0.00	0.00	0.00	0.00	0.00	0.00	0.00	0.00	0.00	0.00	0.00	0.00	0.00	0.00	-1.060059	-0.432129	0.544922	33.670002	101.919998	-83.720001	0.00	0.000000	0.000000
2.71	0.00	0.00	0.00	0.00	0.00	0.00	0.00	0.00	5.75	6.75	4.50	4.00	1.75	11.00	4.75	4.50	-0.542480	0.259277	1.346680	-54.459999	300.299988	-49.070000	383.00	0.301456	0.011944	0.00	0.00	0.00	0.00	0.00	0.00	0.00	0.00	0.00	0.00	0.00	0.00	0.00	0.00	0.00	0.00	0.259766	-1.062500	4.213379	-192.850006	184.380005	-55.650002	0.00	0.000000	0.000000
2.72	0.00	0.00	0.00	0.00	0.00	0.00	0.00	0.00	5.25	6.50	4.25	3.50	1.50	10.25	4.50	4.00	-0.655762	0.345703	1.502441	-51.939999	328.369995	-60.689999	355.00	0.302193	0.015078	0.00	0.00	0.25	0.25	0.00	0.00	0.00	0.00	0.00	0.00	0.00	0.00	0.00	0.00	0.00	0.00	3.573730	0.812500	-0.017578	-279.160004	127.610001	-49.630001	5.00	0.000000	0.000000
2.73	0.00	0.00	0.00	0.00	0.00	0.00	0.00	0.00	4.75	6.25	4.00	3.25	1.00	9.25	4.00	3.50	-0.760742	0.385254	1.690430	-54.180000	355.880005	-75.110001	322.00	0.301708	0.019164	7.50	6.25	9.25	10.50	0.00	0.00	0.00	0.00	0.00	0.00	0.00	0.00	0.00	0.00	0.00	0.00	0.403320	-0.164551	0.437988	-114.449997	143.990005	-5.040000	323.00	-0.327546	-0.050302
2.74	0.00	0.00	0.00	0.00	0.00	0.00	0.00	0.00	4.25	5.75	3.75	2.75	0.75	8.00	3.50	2.75	-0.906738	0.426758	1.977539	-56.420002	381.500000	-87.779999	284.00	0.300479	0.023567	10.50	10.00	15.50	19.00	3.50	7.25	0.00	3.50	0.00	0.00	0.00	0.25	0.50	0.00	0.00	0.00	-2.597168	-1.574707	8.891602	-128.940002	325.360016	-9.310000	695.00	-0.268854	-0.102266
2.75	0.00	0.00	0.00	0.00	0.00	0.00	0.00	0.00	3.75	5.50	3.50	2.25	0.75	6.75	2.75	2.25	-1.032715	0.555176	2.152832	-36.259998	398.089996	-93.239998	249.00	0.296523	0.025101	11.25	10.50	18.50	21.50	6.50	10.25	0.00	4.25	0.00	0.00	0.00	0.50	0.75	0.00	0.00	0.00	-1.197754	-0.106934	3.080078	-55.369999	97.300003	-12.950000	837.00	-0.256223	-0.102677
2.76	0.00	0.00	0.00	0.00	0.00	0.00	0.00	0.00	3.25	5.00	3.00	2.00	0.75	5.25	1.75	2.00	-1.187988	0.645996	2.656250	-7.140000	412.160004	-100.940002	208.00	0.289529	0.022432	12.25	10.00	18.50	20.25	7.75	10.50	0.00	4.75	0.00	0.00	0.00	0.75	0.75	0.00	0.00	0.00	-0.354492	0.266113	0.976074	-12.740000	-13.860000	-1.120000	854.00	-0.251073	-0.099207
2.77	0.00	0.00	0.00	0.00	0.00	0.00	0.00	0.00	2.25	4.50	2.50	1.50	0.00	4.00	1.00	1.75	-1.112305	0.360352	3.183105	15.750000	416.360016	-108.220001	158.00	0.288899	0.032204	11.00	9.75	17.75	19.25	7.75	10.50	0.00	4.25	0.00	0.00	0.00	0.75	1.25	0.00	0.00	0.00	0.060059	0.104492	1.079590	-18.480000	11.410000	9.940000	819.00	-0.247846	-0.101545
2.78	0.00	0.00	0.00	0.00	0.00	0.00	0.00	0.00	1.50	4.00	2.00	1.00	0.00	3.00	0.75	1.25	-0.784668	0.300293	3.254883	18.340000	424.619995	-114.239998	122.00	0.287161	0.031974	10.00	9.00	16.25	18.00	7.50	10.50	0.00	4.25	0.00	0.00	0.00	0.75	1.25	0.00	0.00	0.25	-0.055664	-0.031738	0.995117	-3.220000	-0.210000	7.000000	774.00	-0.242992	-0.106238
2.79	0.00	0.00	0.00	0.00	0.00	0.00	0.00	0.00	1.00	3.25	1.25	0.50	0.00	0.50	0.50	1.00	-0.397949	0.568359	3.001465	3.290000	427.839996	-125.860001	73.00	0.266803	0.016005	9.50	8.25	15.75	17.00	7.75	10.75	0.00	5.25	0.00	0.00	0.25	0.75	2.00	0.00	0.00	0.25	-0.172363	0.209961	0.942871	11.340000	-9.730000	5.110000	775.00	-0.230435	-0.114701
2.80	0.00	0.00	0.00	0.00	0.00	0.00	0.00	0.00	0.75	1.75	0.75	0.00	0.00	0.00	0.50	0.25	0.730957	0.640137	1.970215	-68.459999	431.970001	-162.399994	39.00	0.000000	0.000000	9.00	7.75	15.25	16.50	8.25	11.00	0.25	6.25	0.00	0.25	0.25	1.50	3.00	0.00	0.00	0.50	-0.180664	0.168457	0.954102	20.370001	-13.160000	9.030000	800.00	-0.211517	-0.123884
2.81	0.00	0.00	0.00	0.00	0.00	0.00	0.00	0.00	0.00	0.50	0.00	0.00	0.00	0.00	0.25	0.00	0.730957	0.640137	1.970215	-68.459999	431.970001	-162.399994	7.00	0.000000	0.000000	8.75	7.25	14.50	16.50	8.75	11.50	0.25	6.75	0.00	0.25	0.50	1.50	3.75	0.00	0.00	0.50	-0.163574	0.113281	1.012695	25.620001	-13.230000	9.450000	811.00	-0.202678	-0.130889
2.82	0.00	0.00	0.00	0.00	0.00	0.00	0.00	0.00	0.00	0.00	0.00	0.00	0.00	0.00	0.00	0.00	2.420898	1.042480	1.602539	-91.279999	367.149994	-168.699997	0.00	0.000000	0.000000	8.75	7.75	14.25	16.75	8.75	12.25	0.25	7.50	0.00	0.50	0.75	1.75	4.50	0.00	0.25	0.75	-0.172363	0.209473	1.010742	24.780001	-11.760000	8.540000	850.00	-0.192227	-0.138788
2.83	0.00	0.00	0.00	0.00	0.00	0.00	0.00	0.00	0.00	0.25	0.00	0.00	0.00	0.00	0.25	0.00	0.657715	1.618652	3.695801	9.170000	-9.660000	-67.410004	5.00	0.000000	0.000000	8.75	7.75	14.00	16.50	8.75	12.50	0.25	7.75	0.25	0.50	0.75	2.00	4.75	0.00	0.25	0.75	-0.105957	0.156738	1.046387	18.480000	-4.690000	5.740000	858.00	-0.187353	-0.140378
2.84	0.00	0.00	0.00	0.00	0.00	0.00	0.00	0.00	0.00	0.25	0.00	0.00	0.00	0.00	0.00	0.00	1.385742	0.666016	1.797852	-5.950000	-157.009995	0.700000	2.00	0.000000	0.000000	8.25	7.25	13.50	16.00	8.50	12.25	0.25	8.00	0.25	0.25	0.75	2.50	5.25	0.00	0.25	0.75	-0.105957	0.156738	1.046387	18.480000	-4.690000	5.740000	844.00	-0.180753	-0.146757
2.85	0.00	0.00	0.00	0.00	0.00	0.00	0.00	0.00	0.00	0.00	0.00	0.00	0.00	0.00	0.00	0.00	1.002930	0.589844	0.999023	-60.760002	-203.839996	26.880001	0.00	0.000000	0.000000	8.00	6.75	12.75	15.25	8.25	11.75	0.25	8.00	0.00	0.50	0.75	2.50	5.50	0.00	0.25	1.00	-0.137207	0.188965	1.030273	17.430000	-1.260000	5.740000	818.00	-0.176156	-0.150712
2.86	0.00	0.00	0.00	0.00	0.00	0.00	0.00	0.00	0.00	0.00	0.00	0.00	0.00	0.00	0.00	0.00	0.491699	0.791504	1.061035	-94.919998	-206.430008	40.950001	0.00	0.000000	0.000000	7.50	6.75	12.25	14.75	7.75	11.50	0.25	8.25	0.00	0.50	0.75	2.75	5.75	0.00	0.50	1.25	-0.124023	0.187500	1.002930	11.830000	2.240000	4.970000	807.00	-0.168667	-0.156522
2.87	0.00	0.00	0.00	0.00	0.00	0.00	0.00	0.00	0.00	0.00	0.00	0.00	0.00	0.00	0.00	0.00	0.640625	0.924316	0.941895	-90.930000	-211.190002	53.549999	0.00	0.000000	0.000000	7.50	6.75	11.75	14.25	7.50	11.25	0.25	8.00	0.25	0.50	0.75	2.75	5.75	0.00	0.50	1.25	-0.131348	0.196777	1.001953	7.910000	3.360000	3.500000	791.00	-0.166557	-0.155337
2.88	0.00	0.00	0.00	0.00	0.00	0.00	0.00	0.00	0.00	0.00	0.00	0.00	0.00	0.00	0.00	0.00	0.693359	0.901367	0.935059	-59.290001	-236.110001	65.590004	0.00	0.000000	0.000000	7.50	6.25	11.00	13.75	7.25	10.75	0.25	8.00	0.25	0.50	1.00	3.00	5.50	0.00	0.50	1.25	-0.121094	0.189941	1.008789	3.990000	4.970000	2.240000	770.00	-0.162117	-0.156727
2.89	0.00	0.00	0.00	0.00	0.00	0.00	0.00	0.00	0.00	0.00	0.00	0.00	0.00	0.00	0.00	0.00	0.547852	0.820312	1.028809	-17.780001	-268.239990	76.860001	0.00	0.000000	0.000000	7.25	6.00	10.50	12.50	6.75	10.25	0.25	7.50	0.25	0.50	1.25	3.00	5.75	0.00	0.50	1.25	-0.128418	0.182617	1.003906	0.840000	7.140000	1.470000	735.00	-0.157325	-0.157275
2.90	0.00	0.00	0.00	0.00	0.00	0.00	0.00	0.00	0.00	0.00	0.00	0.00	0.00	0.00	0.00	0.00	0.446289	0.674805	0.972168	13.650000	-296.799988	87.220001	0.00	0.000000	0.000000	7.00	5.75	10.00	11.25	6.00	9.75	0.00	7.50	0.25	0.50	1.25	3.00	5.50	0.00	0.50	1.25	-0.136230	0.183594	1.002930	-1.330000	8.960000	1.190000	695.00	-0.155071	-0.161420
2.91	0.00	0.00	0.00	0.00	0.00	0.00	0.00	0.00	0.00	0.00	0.00	0.00	0.00	0.00	0.00	0.00	0.312500	0.525391	0.899414	29.190001	-316.610016	95.690002	0.00	0.000000	0.000000	6.25	5.00	9.25	10.50	5.50	9.25	0.00	7.25	0.25	0.50	1.25	3.00	5.50	0.00	0.50	1.50	-0.131348	0.192871	0.989746	-2.940000	10.360000	0.630000	654.00	-0.147059	-0.166440
2.92	0.00	0.00	0.00	0.00	0.00	0.00	0.00	0.00	0.00	0.00	0.00	0.00	0.00	0.00	0.00	0.00	0.138672	0.419434	0.864258	31.780001	-326.269989	101.290001	0.00	0.000000	0.000000	5.25	4.25	8.75	8.75	5.25	8.75	0.00	6.75	0.25	0.50	1.50	3.00	5.50	0.00	0.50	1.75	-0.138184	0.191406	0.984863	-4.550000	10.990000	-0.140000	605.00	-0.134230	-0.168795
2.93	0.00	0.00	0.00	0.00	0.00	0.00	0.00	0.00	0.00	0.00	0.00	0.00	0.00	0.00	0.00	0.00	0.044434	0.359375	0.870605	29.610001	-328.440002	102.269997	0.00	0.000000	0.000000	4.75	4.25	8.00	7.75	4.50	7.00	0.00	6.50	0.50	0.50	1.50	3.25	5.25	0.00	0.50	1.50	-0.140625	0.185059	0.976074	-5.670000	10.780000	-0.980000	556.00	-0.126296	-0.168952
2.94	0.00	0.00	0.00	0.00	0.00	0.00	0.00	0.00	0.00	0.00	0.00	0.00	0.00	0.00	0.00	0.00	-0.016602	0.324707	0.935059	34.090000	-328.299988	98.419998	0.00	0.000000	0.000000	4.50	3.75	6.75	7.00	4.00	6.75	0.00	6.25	0.25	0.50	1.75	3.25	5.25	0.00	0.50	1.75	-0.146973	0.173340	0.984375	-5.880000	10.220000	-1.540000	519.00	-0.116977	-0.178678
2.95	0.00	0.00	0.00	0.00	0.00	0.00	0.00	0.00	0.00	0.00	0.00	0.00	0.00	0.00	0.00	0.00	-0.082031	0.298828	1.048340	48.650002	-329.559998	90.440002	0.00	0.000000	0.000000	4.25	3.25	6.00	6.25	3.50	5.75	0.00	5.75	0.50	0.50	1.75	3.25	5.00	0.00	0.50	1.75	-0.137695	0.180176	0.979004	-6.090000	9.940000	-1.750000	476.00	-0.107381	-0.177215
2.96	0.00	0.00	0.00	0.00	0.00	0.00	0.00	0.00	0.00	0.00	0.00	0.00	0.00	0.00	0.00	0.00	-0.137695	0.240723	1.161133	69.510002	-333.200012	80.010002	0.00	0.000000	0.000000	3.50	2.75	5.00	5.75	2.50	5.25	0.00	5.25	0.50	0.75	1.75	3.75	5.00	0.00	0.50	1.75	-0.136230	0.177734	0.976074	-5.600000	9.660000	-2.240000	435.00	-0.088957	-0.188669
2.97	0.00	0.00	0.00	0.00	0.00	0.00	0.00	0.00	0.00	0.00	0.00	0.00	0.00	0.00	0.00	0.00	-0.189941	0.174316	1.266602	89.949997	-337.610016	69.160004	0.00	0.000000	0.000000	3.25	2.50	4.75	5.25	2.00	4.75	0.25	5.25	0.50	1.00	2.00	3.75	5.25	0.00	0.50	1.75	-0.134277	0.181641	0.969238	-4.970000	9.520000	-3.010000	423.00	-0.074732	-0.189572
2.98	0.00	0.00	0.00	0.00	0.00	0.00	0.00	0.00	0.00	0.00	0.00	0.00	0.00	0.00	0.00	0.00	-0.219238	0.092285	1.358398	103.250000	-340.339996	59.360001	0.00	0.000000	0.000000	2.50	1.75	4.25	4.75	1.75	4.25	0.25	4.75	0.50	1.00	2.50	4.25	5.25	0.00	0.75	2.00	-0.136719	0.189941	0.976562	-5.530000	10.360000	-4.200000	399.00	-0.046821	-0.195529
2.99	0.00	0.00	0.00	0.00	0.00	0.00	0.00	0.00	0.00	0.00	0.00	0.00	0.00	0.00	0.00	0.00	-0.260742	-0.047363	1.395508	105.769997	-341.880005	52.849998	0.00	0.000000	0.000000	2.00	1.00	3.75	4.25	1.25	4.25	0.25	4.25	0.50	1.25	2.50	4.75	5.00	0.00	1.00	2.50	-0.151855	0.184082	0.990234	-7.560000	11.900000	-5.670000	376.00	-0.019941	-0.201414
3.00	0.00	0.00	0.00	0.00	0.00	0.00	0.00	0.00	0.00	0.00	0.00	0.00	0.00	0.00	0.00	0.00	-0.489258	0.051270	1.791016	105.559998	-344.119995	45.639999	0.00	0.000000	0.000000	1.25	0.50	2.75	3.25	1.00	3.00	0.25	4.00	1.25	2.00	3.00	4.75	5.00	0.00	1.00	2.75	-0.137695	0.202637	1.011230	-13.300000	15.750000	-8.050000	348.00	0.030261	-0.194968
3.01	0.00	0.00	0.00	0.00	0.00	0.00	0.00	0.00	0.00	0.00	0.00	0.00	0.00	0.00	0.00	0.00	-0.654785	0.039551	1.830566	108.290001	-347.549988	46.200001	0.00	0.000000	0.000000	0.75	0.00	2.50	2.75	0.75	2.25	0.00	3.50	1.75	2.50	3.50	4.75	4.75	0.25	1.25	3.00	-0.124023	0.229492	1.000488	-20.370001	20.440001	-12.040000	330.00	0.070375	-0.184514
3.02	0.00	0.00	0.00	0.00	0.00	0.00	0.00	0.00	0.00	0.00	0.00	0.00	0.00	0.00	0.00	0.00	-0.847168	0.028320	1.843262	108.290001	-349.369995	51.730000	0.00	0.000000	0.000000	0.25	0.00	2.25	2.00	0.50	1.50	0.00	3.00	2.75	3.25	3.75	4.75	4.75	0.25	1.25	3.25	-0.151367	0.205078	0.988281	-22.610001	23.940001	-17.080000	321.00	0.109915	-0.162803
3.03	0.00	0.00	0.00	0.00	0.00	0.00	0.00	0.00	0.00	0.00	0.00	0.00	0.00	0.00	0.00	0.00	-1.063477	0.010254	1.845703	103.529999	-348.880005	61.040001	0.00	0.000000	0.000000	0.00	0.25	1.75	2.00	0.25	1.00	0.00	2.75	3.25	3.50	4.00	4.75	4.50	0.50	2.25	3.75	-0.205566	0.187012	1.002441	-18.969999	27.160000	-21.000000	328.00	0.139771	-0.151279
3.04	0.00	0.00	0.00	0.00	0.00	0.00	0.00	0.00	0.00	0.00	0.00	0.00	0.00	0.00	0.00	0.00	-1.290527	-0.017090	1.821289	94.779999	-346.220001	69.790001	0.00	0.000000	0.000000	0.50	0.00	1.50	1.50	0.25	1.00	0.00	2.50	4.50	4.00	4.25	5.00	4.75	0.50	2.25	4.25	-0.203125	0.176270	1.006348	-11.410000	30.520000	-23.870001	348.00	0.155594	-0.128416
3.05	0.00	0.00	0.00	0.00	0.00	0.00	0.00	0.00	0.00	0.00	0.00	0.00	0.00	0.00	0.00	0.00	-1.604004	-0.051758	1.819824	84.559998	-340.899994	72.940002	0.00	0.000000	0.000000	0.25	0.00	0.75	1.00	0.00	1.00	0.00	2.00	5.50	4.25	4.75	5.25	5.00	0.75	2.75	4.25	-0.184570	0.141602	1.027344	-4.200000	35.630001	-25.410000	354.00	0.190228	-0.115133
3.06	0.00	0.00	0.00	0.00	0.00	0.00	0.00	0.00	0.00	0.00	0.00	0.00	0.00	0.00	0.00	0.00	-1.981445	-0.091797	1.787598	79.169998	-332.500000	66.919998	0.00	0.000000	0.000000	0.00	0.00	0.50	1.00	0.00	0.50	0.00	1.75	5.25	5.00	5.25	5.25	4.75	1.25	3.00	5.00	-0.218750	0.104004	1.064941	0.560000	45.360001	-23.240000	358.00	0.210860	-0.109615
3.07	0.00	0.00	0.00	0.00	0.00	0.00	0.00	0.00	0.00	0.00	0.00	0.00	0.00	0.00	0.00	0.00	-2.405273	-0.159180	1.681152	81.199997	-320.880005	48.299999	0.00	0.000000	0.000000	0.25	0.00	0.25	0.50	0.00	1.00	0.00	1.50	6.00	5.50	5.25	5.75	5.00	2.00	3.50	5.25	-0.220215	0.092285	1.079590	3.570000	59.010002	-18.969999	386.00	0.221214	-0.096700
3.08	0.00	0.00	0.00	0.00	0.00	0.00	0.00	0.00	0.00	0.00	0.00	0.00	0.00	0.00	0.00	0.00	-2.852539	-0.272949	1.512695	91.840004	-303.940002	20.440001	0.00	0.000000	0.000000	0.00	0.00	0.25	0.25	0.00	1.00	0.00	1.50	6.50	6.25	5.50	5.75	5.00	2.75	4.25	6.00	-0.220215	0.089355	1.073242	3.780000	72.379997	-14.490000	414.00	0.235964	-0.086902
3.09	0.00	0.00	0.00	0.00	0.00	0.00	0.00	0.00	0.00	0.00	0.00	0.00	0.00	0.00	0.00	0.00	-3.265625	-0.412598	1.251953	106.540001	-278.529999	-12.250000	0.00	0.000000	0.000000	0.00	0.00	0.25	0.50	0.00	0.25	0.00	1.25	6.75	6.50	5.75	6.00	5.00	3.75	4.25	6.75	-0.230469	0.116699	1.099121	0.910000	87.010002	-10.150000	427.00	0.245958	-0.077103
3.10	0.00	0.00	0.00	0.00	0.00	0.00	0.00	0.00	0.00	0.00	0.00	0.00	0.00	0.00	0.00	0.00	-3.613281	-0.588867	0.934082	119.699997	-242.759995	-45.920002	0.00	0.000000	0.000000	0.00	0.00	0.00	0.00	0.00	0.00	0.00	0.75	7.50	7.00	5.75	6.50	4.75	4.75	4.50	7.50	-0.250000	0.136719	1.115723	-3.290000	103.949997	-7.560000	441.00	0.266189	-0.059811
3.11	0.00	0.00	0.00	0.00	0.00	0.00	0.00	0.00	0.00	0.00	0.00	0.00	0.00	0.00	0.00	0.00	-3.827148	-0.822266	0.633301	130.830002	-199.570007	-74.340004	0.00	0.000000	0.000000	0.00	0.00	0.00	0.00	0.00	0.00	0.00	0.50	8.25	7.50	6.00	6.25	4.75	5.00	5.00	7.75	-0.312012	0.185059	1.199707	-13.370000	154.699997	-8.610000	459.00	0.270309	-0.048447
3.12	0.00	0.00	0.00	0.00	0.00	0.00	0.00	0.00	0.00	0.00	0.00	0.00	0.00	0.00	0.00	0.00	-3.913086	-1.256836	0.396484	121.520004	-114.029999	-106.190002	0.00	0.000000	0.000000	0.00	0.00	0.00	0.00	0.00	0.00	0.00	0.50	8.50	8.25	6.00	6.25	4.50	5.75	5.00	7.75	-0.312012	0.185059	1.199707	-13.370000	154.699997	-8.610000	473.00	0.271963	-0.040169
3.13	0.00	0.00	0.00	0.00	0.00	0.00	0.00	0.00	0.00	0.00	0.00	0.00	0.00	0.00	0.00	0.00	-3.913086	-1.256836	0.396484	121.520004	-114.029999	-106.190002	0.00	0.000000	0.000000	0.00	0.00	0.00	0.00	0.00	0.00	0.00	0.25	9.25	8.50	5.75	6.00	4.25	6.75	5.50	7.50	-0.354980	0.230469	1.229004	-23.309999	218.540009	-18.340000	485.00	0.277921	-0.024159
3.14	0.00	0.00	0.00	0.00	0.00	0.00	0.00	0.00	0.00	0.00	0.00	0.00	0.00	0.00	0.00	0.00	-3.877441	-1.360352	0.358887	88.900002	-73.639999	-111.300003	0.00	0.000000	0.000000	0.00	0.00	0.00	0.00	0.00	0.00	0.00	0.25	9.25	9.00	5.50	6.00	4.00	7.50	5.75	7.00	-0.389160	0.222656	1.265625	-30.940001	250.740005	-25.200001	492.00	0.280087	-0.017494
3.15	0.00	0.00	0.00	0.00	0.00	0.00	0.00	0.00	0.00	0.00	0.00	0.00	0.00	0.00	0.00	0.00	-3.439453	-1.030273	0.395996	-4.690000	10.150000	-117.250000	0.00	0.000000	0.000000	0.00	0.00	0.00	0.00	0.00	0.00	0.00	0.25	9.25	9.00	5.50	5.75	3.75	8.75	5.75	6.50	-0.426270	0.249512	1.297363	-38.570000	281.049988	-32.970001	494.00	0.283116	-0.008994
3.16	0.00	0.00	0.00	0.00	0.00	0.00	0.00	0.00	0.00	0.00	0.00	0.00	0.00	0.00	0.00	0.00	-3.544922	-1.577148	0.008789	-67.199997	42.840000	-113.680000	0.00	0.000000	0.000000	0.00	0.00	0.00	0.00	0.00	0.00	0.00	0.00	9.25	9.50	5.25	5.25	3.25	8.75	5.50	5.50	-0.482910	0.279785	1.410156	-44.590000	310.869995	-43.049999	477.00	0.285423	0.005305
3.17	0.00	0.00	0.00	0.00	0.00	0.00	0.00	0.00	0.00	0.00	0.00	0.00	0.00	0.00	0.00	0.00	-1.231445	-0.159668	0.744141	-286.929993	137.339996	-79.239998	0.00	0.000000	0.000000	0.00	0.00	0.00	0.00	0.00	0.00	0.00	0.00	9.25	9.50	5.25	5.00	2.75	8.75	5.25	4.75	-0.512207	0.301758	1.562012	-48.090000	344.610016	-53.900002	464.00	0.285594	0.013906
3.18	0.00	0.00	0.50	0.50	0.00	0.00	0.00	0.00	0.00	0.00	0.00	0.00	0.00	0.00	0.00	0.00	0.300293	1.179199	1.094727	-320.529999	164.360001	-73.220001	10.00	0.000000	0.000000	0.00	0.00	0.00	0.00	0.00	0.00	0.00	0.00	8.50	9.00	5.25	5.00	2.50	8.50	5.00	4.00	-0.626465	0.359375	1.708984	-49.279999	390.179993	-64.959999	441.00	0.285341	0.012797
3.19	1.00	1.00	1.00	3.50	0.00	0.00	0.00	0.00	0.00	0.00	0.00	0.00	0.00	0.00	0.00	0.00	0.520020	0.824707	1.479980	-281.540009	143.149994	-31.290001	63.00	-0.318544	-0.116336	0.00	0.00	0.00	0.00	0.00	0.00	0.00	0.00	7.50	9.00	4.75	4.75	2.25	7.25	4.25	3.25	-0.877441	0.541992	2.046875	-42.139999	445.549988	-77.559998	399.00	0.281934	0.011485
3.20	4.50	5.25	3.25	6.75	0.00	0.00	0.00	0.00	0.00	0.00	0.00	0.00	0.00	0.00	0.00	0.00	0.662598	-0.498047	1.812012	-164.009995	158.479996	26.110001	188.00	-0.340355	-0.079764	0.00	0.00	0.00	0.00	0.00	0.00	0.00	0.00	6.75	7.50	4.50	4.00	1.75	6.25	3.75	2.50	-1.076660	0.576172	2.632324	-31.150000	490.350006	-93.590004	345.00	0.282004	0.016352
3.21	8.50	9.00	7.25	12.00	0.00	0.75	0.00	0.50	0.00	0.00	0.00	0.00	0.00	0.00	0.00	0.00	-0.230957	-0.900391	0.898438	-1.820000	212.800003	56.139999	365.00	-0.327406	-0.079584	0.00	0.00	0.00	0.00	0.00	0.00	0.00	0.00	6.00	6.50	3.75	3.75	1.50	5.25	3.00	1.75	-1.460449	0.470215	3.122559	-19.740000	504.209991	-106.120003	297.00	0.279333	0.018298
3.22	12.00	13.25	12.75	16.25	0.50	4.50	0.00	2.00	0.00	0.00	0.00	0.00	0.50	0.00	0.00	0.00	-1.714844	-0.895508	5.583984	-51.029999	320.110016	5.950000	600.00	-0.301451	-0.093097	0.00	0.00	0.00	0.00	0.00	0.00	0.00	0.00	5.50	5.25	3.00	3.00	1.25	4.50	2.25	1.50	-1.405273	0.620605	3.163574	3.220000	496.720001	-104.580002	248.00	0.278976	0.027692
3.23	12.25	13.00	15.50	17.50	2.75	6.50	0.25	3.50	0.00	0.00	0.00	0.00	0.75	0.00	0.00	0.00	-0.852051	-0.254883	1.760742	-57.330002	139.509995	-11.760000	710.00	-0.278288	-0.095611	0.00	0.00	0.00	0.00	0.00	0.00	0.00	0.00	4.50	4.25	2.50	2.25	0.75	3.50	1.25	1.25	-0.966309	0.544434	3.581055	23.030001	481.529999	-115.010002	192.00	0.276142	0.038127
3.24	11.50	11.75	16.00	17.00	4.50	7.75	0.25	3.75	0.00	0.00	0.00	0.50	1.00	0.50	0.00	0.00	-0.191406	0.240723	0.882324	-29.330000	31.780001	0.000000	736.00	-0.259843	-0.095911	0.00	0.00	0.00	0.00	0.00	0.00	0.00	0.00	3.25	3.75	1.75	1.50	0.50	2.00	0.75	1.00	-0.698242	0.420898	3.163574	19.950001	477.119995	-129.570007	138.00	0.270314	0.039936
3.25	10.50	10.00	15.00	16.00	5.25	8.50	0.25	4.25	0.00	0.25	0.25	1.00	1.25	0.50	0.00	0.25	-0.032715	0.077148	1.128906	-20.580000	25.969999	6.580000	727.00	-0.240867	-0.103241	0.00	0.00	0.00	0.00	0.00	0.00	0.00	0.00	2.50	2.75	1.50	1.00	0.25	1.00	0.25	0.50	-0.084473	0.571777	2.993164	25.129999	482.299988	-139.440002	95.00	0.259994	0.051095
3.26	8.75	8.75	13.75	14.50	5.75	8.50	0.25	4.50	0.75	0.50	0.50	1.00	1.50	1.25	0.50	0.50	-0.125000	0.005371	1.039062	-3.920000	12.810000	0.910000	708.00	-0.209527	-0.102009	0.00	0.00	0.00	0.00	0.00	0.00	0.00	0.00	1.25	1.75	0.75	0.75	0.00	0.50	0.00	0.25	0.652832	0.909180	2.577637	15.400000	470.890015	-155.610001	51.00	0.254407	0.048744
3.27	7.50	8.50	13.00	13.50	6.00	8.75	0.25	4.75	1.00	1.00	0.75	1.50	2.50	1.50	0.25	0.50	-0.216797	0.206543	1.049316	5.110000	14.770000	-0.840000	707.00	-0.189273	-0.109131	0.00	0.00	0.00	0.00	0.00	0.00	0.00	0.00	0.50	1.00	0.25	0.00	0.00	0.00	0.00	0.00	1.504883	0.849121	1.673828	27.370001	417.899994	-163.029999	18.00	0.000000	0.000000
3.28	6.75	7.25	12.25	12.75	6.50	9.00	0.75	5.25	2.25	1.75	1.25	1.75	3.25	2.50	0.50	1.00	-0.179688	0.129883	0.993164	5.530000	15.400000	0.350000	744.00	-0.147465	-0.101718	0.00	0.00	0.00	0.00	0.00	0.00	0.00	0.00	0.00	0.50	0.00	0.00	0.00	0.00	0.00	0.00	2.503906	0.766113	1.817383	51.520000	309.679993	-171.289993	5.00	0.000000	0.000000
3.29	6.25	6.75	11.50	12.00	6.75	9.25	0.75	5.50	3.00	2.50	1.50	2.25	3.75	3.25	0.50	2.00	-0.230957	0.153809	1.018555	4.200000	11.410000	-0.490000	766.00	-0.120192	-0.101136	0.00	0.00	0.00	0.00	0.00	0.00	0.00	0.00	0.00	0.50	0.00	0.00	0.00	0.00	0.00	0.00	0.137695	1.794434	5.318848	103.459999	142.869995	-119.629997	5.00	0.000000	0.000000
3.30	6.00	6.50	11.00	11.50	7.25	9.00	0.75	5.50	3.75	2.50	2.25	2.75	4.50	3.50	1.00	2.50	-0.209961	0.178223	1.017090	1.960000	7.210000	-1.330000	791.00	-0.098813	-0.100115	0.00	0.00	0.00	0.00	0.00	0.00	0.00	0.00	0.00	0.50	0.00	0.00	0.00	0.00	0.00	0.00	1.539551	0.615723	2.782227	46.480000	-50.119999	-22.469999	5.00	0.000000	0.000000
3.31	5.50	6.00	10.75	11.00	7.75	9.00	0.75	6.00	4.25	3.25	3.25	3.25	5.00	3.75	1.00	2.50	-0.183594	0.131836	1.033691	1.890000	5.530000	-1.610000	820.00	-0.079501	-0.100564	0.00	0.00	0.00	0.00	0.00	0.00	0.00	0.00	0.00	0.50	0.00	0.00	0.00	0.00	0.00	0.00	1.307129	0.091309	1.497070	-77.980003	-178.220001	45.990002	5.00	0.000000	0.000000
3.32	5.00	5.50	10.25	10.50	7.25	8.75	1.00	6.00	4.50	3.75	3.50	3.25	5.25	4.00	1.25	3.25	-0.153320	0.169434	1.030273	4.130000	10.080000	-0.840000	817.00	-0.063032	-0.099722	0.00	0.00	0.00	0.00	0.00	0.00	0.00	0.00	0.00	0.25	0.00	0.00	0.00	0.00	0.00	0.00	0.692383	0.280273	1.244141	-171.639999	-221.619995	68.739998	2.00	0.000000	0.000000
3.33	5.00	5.25	9.25	9.50	6.75	8.50	1.00	5.75	4.75	3.75	3.75	3.50	5.50	4.00	2.50	3.25	-0.159180	0.168945	1.020020	3.710000	12.390000	-1.050000	805.00	-0.045811	-0.099472	0.00	0.00	0.00	0.00	0.00	0.00	0.00	0.00	0.00	0.00	0.00	0.00	0.00	0.00	0.00	0.00	0.619629	0.579590	1.004883	-203.279999	-228.130005	70.279999	0.00	0.000000	0.000000
3.34	4.50	4.75	8.75	8.75	6.25	8.00	1.00	5.75	5.00	4.00	3.75	3.50	5.50	4.50	2.50	3.75	-0.144531	0.168457	1.017090	3.850000	14.490000	-1.470000	786.00	-0.031157	-0.097709	0.00	0.00	0.00	0.00	0.00	0.00	0.00	0.00	0.00	0.00	0.00	0.00	0.00	0.00	0.00	0.00	0.734863	0.643066	0.875000	-165.899994	-240.589996	61.180000	0.00	0.000000	0.000000
3.35	4.25	4.50	8.00	9.00	6.00	7.50	0.75	5.50	5.25	4.00	4.00	3.75	5.50	4.75	2.50	4.00	-0.151367	0.171875	1.023926	3.990000	16.450001	-1.750000	772.00	-0.022566	-0.098908	0.00	0.00	0.00	0.00	0.00	0.00	0.00	0.00	0.00	0.00	0.00	0.00	0.00	0.00	0.00	0.00	0.233398	0.212891	0.967773	-64.260002	-301.489990	14.630000	0.00	0.000000	0.000000
3.36	4.00	4.25	6.75	8.25	5.50	6.75	0.75	5.25	5.25	4.25	4.00	3.75	5.50	4.75	3.25	4.00	-0.143066	0.166504	1.018066	3.990000	18.620001	-2.240000	741.00	-0.006361	-0.098617	0.00	0.00	0.00	0.00	0.00	0.00	0.00	0.00	0.00	0.00	0.00	0.00	0.00	0.00	0.00	0.00	0.233398	0.212891	0.967773	-64.260002	-301.489990	14.630000	0.00	0.000000	0.000000
3.37	4.00	4.00	5.75	7.25	4.50	6.25	0.50	5.25	5.25	4.25	4.00	4.00	5.50	4.75	3.25	4.25	-0.170410	0.157227	1.010254	3.920000	21.280001	-2.730000	704.00	0.006310	-0.103136	0.00	0.00	0.00	0.00	0.00	0.00	0.00	0.00	0.00	0.00	0.00	0.00	0.00	0.00	0.00	0.00	0.162598	0.017578	0.965820	-45.570000	-325.149994	-17.500000	0.00	0.000000	0.000000
3.38	3.50	3.75	5.00	6.25	4.50	5.25	0.50	5.00	5.25	4.25	4.00	4.00	5.50	4.75	3.25	4.25	-0.152344	0.179688	1.015137	4.060000	23.309999	-2.940000	666.00	0.020570	-0.100779	0.00	0.00	0.00	0.00	0.00	0.00	0.00	0.00	0.00	0.00	0.00	0.00	0.00	0.00	0.00	0.00	0.025879	-0.018555	1.036133	-48.720001	-344.119995	-47.599998	0.00	0.000000	0.000000
3.39	3.50	3.50	4.25	5.00	3.75	4.50	0.25	4.75	5.25	4.25	4.50	4.00	5.25	4.75	3.25	4.25	-0.158691	0.173828	0.993164	3.990000	25.059999	-3.780000	625.00	0.036503	-0.099557	0.00	0.00	0.00	0.00	0.00	0.00	0.00	0.00	0.00	0.00	0.00	0.00	0.00	0.00	0.00	0.00	-0.263672	0.203613	1.147949	-36.540001	-380.660004	-91.629997	0.00	0.000000	0.000000
3.40	3.50	3.25	3.75	4.50	2.75	4.25	0.25	4.50	4.75	4.25	4.50	4.00	5.25	4.50	3.25	4.50	-0.159668	0.171387	1.009766	3.080000	26.950001	-4.410000	590.00	0.044534	-0.105338	0.00	0.00	0.00	0.00	0.00	0.00	0.00	0.00	0.00	0.00	0.00	0.00	0.00	0.00	0.00	0.00	-0.340820	0.255859	1.142578	-9.870000	-394.869995	-95.690002	0.00	0.000000	0.000000
3.41	3.25	2.00	3.00	3.75	2.00	4.00	0.25	4.25	4.75	4.00	4.50	4.00	5.00	4.75	3.50	4.75	-0.167480	0.166992	1.016113	1.400000	29.260000	-5.180000	550.00	0.070054	-0.104690																									
3.42	1.25	1.75	2.25	3.25	1.25	2.75	0.25	4.00	4.50	4.00	4.50	4.25	4.50	4.75	3.50	4.50	-0.171387	0.170898	0.988281	-0.770000	31.710001	-5.810000	487.00	0.106811	-0.110583	0.00	0.00	0.00	0.00	0.00	0.00	0.00	0.00	0.00	0.00	0.00	0.00	0.00	0.00	0.00	0.00	-0.395508	0.258789	1.131836	13.580000	-402.220001	-83.650002	0.00	0.000000	0.000000
3.43	1.25	0.50	1.50	3.00	1.00	2.00	0.00	3.75	4.50	4.00	4.50	4.25	4.50	4.75	3.75	4.50	-0.170898	0.184082	1.012695	-2.520000	36.680000	-7.070000	451.00	0.135826	-0.110725	0.00	0.00	0.00	0.00	0.00	0.00	0.00	0.00	0.00	0.00	0.00	0.00	0.00	0.00	0.00	0.00	-0.441406	0.310547	1.137695	22.400000	-402.920013	-56.209999	0.00	0.000000	0.000000
3.44	0.50	0.00	1.25	2.75	0.75	1.50	0.00	3.00	4.25	3.75	4.25	4.25	4.25	4.75	3.50	4.75	-0.192383	0.166016	1.028809	-0.490000	47.599998	-8.610000	406.00	0.161924	-0.109300	0.00	0.00	0.00	0.00	0.00	0.00	0.00	0.00	0.00	0.00	0.00	0.00	0.00	0.00	0.00	0.00	-0.557129	0.493652	1.365723	19.040001	-386.540009	28.700001	0.00	0.000000	0.000000
3.45	0.00	0.00	1.00	1.50	0.50	1.25	0.00	2.50	4.25	3.75	4.00	4.00	4.00	4.75	3.25	4.75	-0.184082	0.187988	0.994629	1.750000	59.639999	-10.010000	365.00	0.192711	-0.101208	0.00	0.00	0.00	0.00	0.00	0.00	0.00	0.00	0.00	0.00	0.00	0.00	0.00	0.00	0.00	0.00	-0.622070	0.648926	1.435059	34.930000	-375.829987	73.010002	0.00	0.000000	0.000000
3.46	0.00	0.00	0.50	1.00	0.25	1.00	0.00	2.00	4.00	3.75	4.00	4.00	4.00	4.75	3.50	4.50	-0.211914	0.183594	0.985840	1.260000	65.029999	-11.620000	341.00	0.216008	-0.098646																									
3.47	0.00	0.00	0.00	0.75	0.00	0.50	0.00	1.50	3.75	3.50	4.00	4.00	3.75	4.75	3.25	4.50	-0.212891	0.191406	0.997070	-2.100000	66.570000	-13.090000	309.00	0.240074	-0.095279	0.00	0.00	0.00	0.00	0.00	0.00	0.00	0.00	0.00	0.00	0.00	0.00	0.00	0.00	0.00	0.00	-0.728027	0.663574	1.592285	67.480003	-369.179993	110.879997	0.00	0.000000	0.000000
3.48	0.00	0.00	0.00	0.75	0.00	0.50	0.00	1.25	3.75	3.50	4.00	4.00	3.50	5.00	3.25	4.50	-0.234375	0.175781	0.979980	-3.220000	69.019997	-16.309999	306.00	0.244502	-0.087780	0.00	0.00	0.00	0.00	0.00	0.00	0.00	0.00	0.00	0.00	0.00	0.00	0.00	0.00	0.00	0.00	-1.089844	0.595703	1.915527	127.820000	-364.769989	167.509995	0.00	0.000000	0.000000
3.49	0.00	0.00	0.00	0.50	0.00	0.50	0.00	1.25	3.75	3.50	4.00	4.00	3.25	5.25	3.25	4.50	-0.234375	0.175781	0.979980	-3.220000	69.019997	-16.309999	303.00	0.250475	-0.082481	0.00	0.00	0.00	0.00	0.00	0.00	0.00	0.00	0.00	0.00	0.00	0.00	0.00	0.00	0.00	0.00	-1.296387	0.587402	2.035156	134.960007	-365.470001	195.160004	0.00	0.000000	0.000000
3.50	0.00	0.00	0.00	0.50	0.00	0.25	0.00	0.75	3.50	3.50	4.00	3.75	3.00	5.25	3.50	4.50	-0.266602	0.173828	0.955566	-3.920000	70.769997	-17.570000	289.00	0.262438	-0.072696	0.00	0.00	0.00	0.00	0.00	0.00	0.00	0.00	0.00	0.00	0.00	0.00	0.00	0.00	0.00	0.00	-1.494141	0.592285	2.137695	117.879997	-366.869995	222.250000	0.00	0.000000	0.000000
3.51	0.00	0.00	0.00	0.00	0.00	0.25	0.00	0.75	3.25	3.50	4.00	3.75	3.00	5.25	4.00	4.25	-0.281250	0.155762	0.929688	-4.830000	69.860001	-17.780001	285.00	0.274242	-0.072767	0.00	0.00	0.00	0.00	0.00	0.00	0.00	0.00	0.00	0.00	0.00	0.00	0.00	0.00	0.00	0.00	-1.685547	0.611328	2.160645	80.150002	-366.799988	245.490005	0.00	0.000000	0.000000
3.52	0.00	0.00	0.00	0.00	0.00	0.25	0.00	0.50	3.25	4.00	4.00	3.75	2.75	5.50	3.75	4.50	-0.282715	0.145996	0.929199	-5.530000	67.830002	-17.080000	285.00	0.278101	-0.063120	0.00	0.00	0.00	0.00	0.00	0.00	0.00	0.00	0.00	0.00	0.00	0.00	0.00	0.00	0.00	0.00	-1.841797	0.713867	2.136719	39.549999	-363.019989	260.890015	0.00	0.000000	0.000000
3.53	0.00	0.00	0.00	0.00	0.00	0.25	0.00	0.50	3.75	4.00	4.00	3.75	2.75	5.75	4.00	4.50	-0.300781	0.138184	0.937500	-6.020000	66.220001	-15.680000	295.00	0.279613	-0.054833																									
3.54	0.00	0.00	0.00	0.00	0.00	0.00	0.00	0.50	3.75	3.75	4.00	3.75	2.75	6.75	4.25	4.50	-0.318359	0.137695	0.933594	-7.280000	65.660004	-14.350000	300.00	0.288001	-0.048140	0.00	0.00	0.00	0.00	0.00	0.00	0.00	0.00	0.00	0.00	0.00	0.00	0.00	0.00	0.00	0.00	-2.081055	0.770508	2.027344	16.590000	-354.549988	265.230011	0.00	0.000000	0.000000
3.55	0.00	0.00	0.00	0.00	0.00	0.00	0.00	0.50	4.25	4.25	4.00	3.75	2.50	7.25	4.25	4.50	-0.329590	0.132812	0.940430	-8.260000	66.360001	-13.090000	313.00	0.288987	-0.034817	0.00	0.00	0.00	0.00	0.00	0.00	0.00	0.00	0.00	0.00	0.00	0.00	0.00	0.00	0.00	0.00	-2.315430	0.736328	1.788086	19.950001	-340.690002	257.040009	0.00	0.000000	0.000000
3.56	0.00	0.00	0.00	0.00	0.00	0.00	0.00	0.50	4.25	4.25	4.00	3.75	2.00	7.75	4.25	4.75	-0.329590	0.136719	0.947266	-9.450000	68.250000	-12.390000	314.00	0.292320	-0.027865	0.00	0.00	0.00	0.00	0.00	0.00	0.00	0.00	0.00	0.00	0.00	0.00	0.00	0.00	0.00	0.00	-2.534668	0.607422	1.484375	44.939999	-318.010010	236.880005	0.00	0.000000	0.000000
