# Measurement Wed, 01 Mar 2023 - 21:27:36.969 (00:44.834) SN8508 SN8509 Size 4, normal
# No Name, No Comment, No tags
# time	left pressure 1[N/cm²]	left pressure 2[N/cm²]	left pressure 3[N/cm²]	left pressure 4[N/cm²]	left pressure 5[N/cm²]	left pressure 6[N/cm²]	left pressure 7[N/cm²]	left pressure 8[N/cm²]	left pressure 9[N/cm²]	left pressure 10[N/cm²]	left pressure 11[N/cm²]	left pressure 12[N/cm²]	left pressure 13[N/cm²]	left pressure 14[N/cm²]	left pressure 15[N/cm²]	left pressure 16[N/cm²]	left acceleration X[g]	left acceleration Y[g]	left acceleration Z[g]	left angular X[dps]	left angular Y[dps]	left angular Z[dps]	left total force[N]	left center of pressure X[-0.5...+0.5]	left center of pressure Y[-0.5...+0.5]	right pressure 1[N/cm²]	right pressure 2[N/cm²]	right pressure 3[N/cm²]	right pressure 4[N/cm²]	right pressure 5[N/cm²]	right pressure 6[N/cm²]	right pressure 7[N/cm²]	right pressure 8[N/cm²]	right pressure 9[N/cm²]	right pressure 10[N/cm²]	right pressure 11[N/cm²]	right pressure 12[N/cm²]	right pressure 13[N/cm²]	right pressure 14[N/cm²]	right pressure 15[N/cm²]	right pressure 16[N/cm²]	right acceleration X[g]	right acceleration Y[g]	right acceleration Z[g]	right angular X[dps]	right angular Y[dps]	right angular Z[dps]	right total force[N]	right center of pressure X[-0.5...+0.5]	right center of pressure Y[-0.5...+0.5]	right steps[]	left steps[]
0.00	2.50	3.25	3.75	4.50	1.50	2.00	0.00	1.00	1.75	1.75	1.25	1.50	1.25	1.50	0.25	1.25	-0.161621	0.126465	0.984375	-1.960000	2.030000	0.700000	278.00	-0.087587	-0.079905																											
0.01	3.25	3.25	3.75	4.50	1.50	2.00	0.00	1.00	2.00	1.50	1.25	1.25	1.00	1.50	0.50	1.25	-0.159668	0.123535	0.980957	-2.030000	2.030000	0.700000	283.00	-0.094728	-0.068141	1.75	1.50	4.25	4.50	2.50	2.50	0.25	1.25	1.00	0.75	1.00	0.75	1.00	0.25	0.50	0.75	-0.157715	0.120605	0.995605	-1.120000	-3.920000	3.710000	243.00	-0.120894	-0.091361		
0.02	3.50	3.50	3.75	4.50	1.25	2.00	0.25	1.00	2.00	1.50	1.00	1.25	1.00	1.50	0.50	1.00	-0.163086	0.123047	0.973145	-1.890000	2.100000	0.700000	285.00	-0.101937	-0.063264	1.75	1.50	4.25	4.75	2.50	2.50	0.25	1.25	1.00	0.75	0.75	0.75	1.00	0.25	0.50	1.25	-0.162598	0.116699	0.996582	-1.120000	-3.920000	3.780000	246.00	-0.121084	-0.094743		
0.03	3.50	3.50	3.75	4.50	1.50	2.00	0.25	1.00	2.00	1.50	1.00	1.50	1.25	1.75	0.50	1.00	-0.167480	0.124512	0.975586	-1.750000	2.100000	0.770000	294.00	-0.094333	-0.065208	1.75	1.50	4.25	4.75	2.25	2.75	0.25	1.25	1.00	0.75	0.75	0.75	1.00	0.25	0.50	1.25	-0.161133	0.117188	1.000488	-1.120000	-3.920000	3.710000	246.00	-0.121357	-0.098143		
0.04	3.50	3.25	4.00	4.50	1.50	2.00	0.25	1.00	1.75	1.50	1.00	1.50	1.00	1.75	0.50	1.00	-0.163086	0.117676	0.979492	-2.170000	2.100000	0.630000	290.00	-0.098941	-0.063892	1.75	1.25	4.25	4.75	2.50	2.50	0.25	1.75	1.00	0.75	0.75	0.75	1.25	0.50	0.50	1.25	-0.162109	0.117188	0.987305	-1.120000	-3.990000	3.710000	254.00	-0.109294	-0.103056		
0.05	3.50	3.25	3.75	4.50	1.25	2.00	0.25	1.00	1.75	1.50	1.00	1.50	0.75	1.75	0.50	1.00	-0.160645	0.124023	0.974609	-1.960000	2.030000	0.630000	283.00	-0.099097	-0.063582	2.00	1.00	4.25	4.75	2.50	2.50	0.25	1.75	1.00	0.75	0.75	1.00	1.25	0.25	0.50	1.25	-0.162109	0.119629	0.996582	-1.050000	-3.920000	3.710000	255.00	-0.110474	-0.104537		
0.06	3.50	3.00	3.50	4.50	1.50	1.75	0.25	1.00	1.75	1.75	1.00	1.50	1.00	1.75	0.50	1.00	-0.162598	0.122559	0.974609	-2.030000	2.100000	0.560000	282.00	-0.090230	-0.062981	1.75	1.00	4.25	4.75	2.75	2.50	0.25	1.75	1.00	0.75	0.75	1.00	1.00	0.25	0.50	1.25	-0.158691	0.119629	0.996094	-1.120000	-3.920000	3.780000	253.00	-0.110089	-0.102075		
0.07	3.50	2.50	3.50	4.50	1.25	2.00	0.25	1.00	1.50	1.75	1.00	1.50	0.75	1.75	0.50	1.25	-0.166992	0.120117	0.978516	-2.240000	2.310000	0.560000	274.00	-0.089083	-0.066363	1.25	1.00	4.25	4.75	3.00	2.50	0.25	1.75	1.00	0.75	0.75	1.00	1.00	0.50	0.50	1.00	-0.162598	0.116211	0.993164	-1.050000	-3.920000	3.850000	252.00	-0.103007	-0.101194		
0.08	3.50	3.00	4.00	4.75	1.25	2.00	0.25	1.00	1.50	1.50	1.00	1.25	0.75	2.00	0.25	1.25	-0.160645	0.122559	0.982910	-2.240000	2.240000	0.490000	281.00	-0.105097	-0.063746	1.75	1.00	4.25	4.75	2.75	3.00	0.25	1.75	1.00	0.75	0.75	1.25	1.00	0.25	0.50	1.00	-0.159180	0.118164	0.999023	-1.190000	-3.920000	3.710000	259.00	-0.110197	-0.106132		
0.09	3.25	3.25	4.00	4.50	1.25	1.75	0.25	1.00	1.75	2.00	1.00	1.25	1.00	2.00	0.25	1.25	-0.161133	0.120605	0.983887	-1.890000	2.030000	0.630000	285.00	-0.091437	-0.059800	1.50	1.00	4.50	4.75	2.50	3.00	0.25	1.50	1.00	0.75	0.75	1.50	1.00	0.25	0.50	1.00	-0.159180	0.118164	0.999023	-1.190000	-3.920000	3.710000	256.00	-0.107216	-0.105719		
0.10	3.50	3.25	4.00	4.75	1.25	1.75	0.25	0.75	1.75	2.00	1.00	1.25	0.75	1.75	0.25	1.00	-0.165527	0.121582	0.984863	-1.750000	1.890000	0.770000	282.00	-0.104129	-0.053429	1.25	1.50	4.50	4.50	2.75	3.00	0.25	1.50	1.00	0.75	0.75	1.25	0.75	0.25	0.50	1.25	-0.158691	0.115234	0.995117	-1.260000	-3.920000	3.780000	255.00	-0.110845	-0.102326		
0.11	3.50	3.00	4.00	4.75	1.25	2.00	0.25	1.00	1.75	2.00	1.00	1.25	0.75	1.75	0.50	1.00	-0.161621	0.122070	0.983398	-1.890000	1.820000	0.840000	288.00	-0.096860	-0.058830	1.25	1.00	4.50	5.00	3.00	3.00	0.25	1.50	1.00	0.75	0.75	1.00	1.00	0.50	0.50	1.25	-0.158691	0.115234	0.995117	-1.260000	-3.920000	3.780000	260.00	-0.106318	-0.100936		
0.12	3.25	3.25	4.00	4.50	1.25	2.00	0.25	1.00	1.75	2.00	1.00	1.50	1.00	1.75	0.50	1.00	-0.161133	0.124023	0.979492	-1.750000	1.890000	0.770000	289.00	-0.090647	-0.064291	1.25	1.00	4.25	5.25	3.00	3.75	0.25	1.50	1.00	0.75	0.75	1.00	1.00	0.50	0.50	1.25	-0.164062	0.116699	0.992188	-1.190000	-3.920000	3.780000	267.00	-0.107781	-0.108725		
0.13	3.25	3.25	3.75	4.50	1.25	2.00	0.25	1.00	1.50	2.00	1.00	1.00	1.00	1.75	0.25	1.25	-0.159180	0.121582	0.970703	-1.680000	1.820000	0.630000	278.00	-0.100272	-0.066295	1.25	1.00	4.25	5.00	2.75	3.75	0.25	1.50	1.00	1.00	0.75	1.00	1.00	0.50	0.50	1.25	-0.164062	0.116699	0.992188	-1.190000	-3.920000	3.780000	264.00	-0.102777	-0.107685		
0.14	3.50	3.25	4.00	4.50	1.25	1.75	0.25	1.00	1.75	2.00	1.00	1.00	1.00	1.75	0.50	1.25	-0.166504	0.123047	0.985352	-1.820000	1.820000	0.700000	286.00	-0.095781	-0.058223	1.50	1.50	4.50	4.75	2.75	3.75	0.25	1.50	1.00	0.75	0.75	1.00	1.00	0.50	0.50	1.25	-0.154785	0.114258	0.994629	-1.260000	-3.920000	3.710000	269.00	-0.113203	-0.105246		
0.15	3.50	3.25	4.00	4.50	1.50	2.25	0.25	1.00	1.75	2.00	1.00	1.25	0.75	2.00	0.50	1.25	-0.159668	0.122559	0.978516	-1.610000	1.890000	0.630000	296.00	-0.092929	-0.058479	1.75	1.00	4.50	5.00	2.75	4.00	0.25	1.75	0.75	0.75	0.75	1.25	1.00	0.50	0.50	1.25	-0.158691	0.121094	0.996094	-1.330000	-3.710000	3.710000	275.00	-0.112921	-0.114512		
0.16	3.50	3.25	3.75	4.50	1.50	2.00	0.25	1.00	1.75	2.00	1.00	1.25	0.75	2.00	0.50	1.25	-0.161621	0.125488	0.981934	-1.750000	1.890000	0.770000	291.00	-0.090905	-0.057942	1.25	1.25	4.50	4.75	2.50	4.00	0.25	1.50	0.75	1.00	0.75	1.25	1.00	0.50	0.50	1.25	-0.155273	0.121094	0.992188	-1.330000	-3.710000	3.640000	266.00	-0.106548	-0.114295		
0.17	3.50	3.25	3.75	4.50	1.25	2.00	0.25	1.00	1.75	2.00	1.00	1.25	1.00	1.75	0.50	1.25	-0.163574	0.126465	0.979492	-1.750000	1.960000	0.700000	288.00	-0.092217	-0.063372	1.25	1.50	4.75	5.50	2.50	3.75	0.25	1.50	1.00	1.00	0.75	1.25	1.25	0.50	0.50	1.25	-0.163086	0.122070	0.994629	-1.330000	-3.850000	3.780000	281.00	-0.108936	-0.112716		
0.18	3.50	3.25	3.75	4.75	1.25	2.00	0.25	1.00	1.75	2.00	1.00	1.00	1.00	1.75	0.25	1.25	-0.162598	0.124023	0.974609	-1.610000	1.890000	0.770000	286.00	-0.100690	-0.062669	1.25	1.50	4.75	5.50	2.50	3.00	0.25	1.50	1.00	1.00	0.75	1.25	1.00	0.50	0.50	1.25	-0.156738	0.125000	0.993164	-1.330000	-3.850000	3.710000	271.00	-0.109792	-0.105741		
0.19	3.50	3.25	3.50	4.50	1.25	2.00	0.25	1.00	1.75	2.00	1.00	1.50	0.75	1.75	0.25	1.00	-0.162109	0.119629	0.976074	-1.680000	1.750000	0.770000	282.00	-0.096202	-0.062657	1.25	1.50	4.75	5.25	2.50	3.75	0.25	1.75	1.00	1.00	1.00	1.00	1.00	0.25	0.50	1.25	-0.165527	0.121582	0.995605	-1.400000	-3.850000	3.710000	278.00	-0.111653	-0.113172		
0.20	3.50	3.25	3.50	4.50	1.25	2.00	0.25	1.00	2.00	2.00	1.00	1.50	0.75	1.75	0.50	1.00	-0.168945	0.126465	0.986328	-1.750000	1.890000	0.700000	288.00	-0.088310	-0.059316	1.25	1.00	4.50	5.00	2.75	4.25	0.25	1.50	1.00	0.75	1.25	1.00	1.00	0.25	0.50	1.25	-0.161133	0.119141	0.995117	-1.400000	-3.850000	3.780000	272.00	-0.106120	-0.112545		
0.21	3.50	3.25	4.00	4.50	1.25	2.00	0.25	0.75	2.00	2.00	1.00	1.25	1.00	1.75	0.50	1.00	-0.154785	0.123535	0.980957	-1.610000	1.820000	0.770000	289.00	-0.093054	-0.053493	1.00	1.00	4.75	5.75	2.75	3.75	0.25	1.50	1.00	1.00	1.00	1.25	1.25	0.50	0.50	1.25	-0.160156	0.120605	0.983887	-1.470000	-3.990000	3.780000	281.00	-0.100748	-0.113254		
0.22	3.50	3.25	4.00	4.50	1.25	1.75	0.25	0.75	1.75	2.00	1.25	1.00	0.75	1.75	0.50	1.00	-0.166016	0.124023	0.980469	-1.750000	1.890000	0.700000	281.00	-0.097978	-0.050602	1.25	1.25	4.75	5.75	2.75	4.00	0.25	1.50	1.00	1.00	1.00	1.25	1.00	0.25	0.50	1.25	-0.160645	0.119629	0.994629	-1.400000	-3.850000	3.780000	284.00	-0.111471	-0.112748		
0.23	3.50	3.25	3.75	4.50	1.50	1.50	0.25	0.75	1.75	2.00	1.00	1.00	0.75	1.75	0.50	1.00	-0.163086	0.122559	0.972656	-1.610000	1.890000	0.770000	277.00	-0.098995	-0.048312	1.50	1.50	4.50	5.25	2.50	4.25	0.25	1.50	1.00	0.75	0.75	1.00	1.00	0.25	0.50	1.25	-0.162598	0.116699	0.993164	-1.470000	-3.710000	3.780000	274.00	-0.120736	-0.114018		
0.24	3.50	3.00	4.00	4.50	1.25	2.00	0.25	0.75	2.00	1.75	1.00	1.25	1.00	1.75	0.50	1.00	-0.161133	0.125488	0.977539	-1.610000	1.820000	0.770000	284.00	-0.093449	-0.053641	1.00	1.50	4.50	5.25	2.50	3.75	0.25	1.50	1.00	0.75	0.75	1.00	1.25	0.50	0.50	1.25	-0.158691	0.117188	0.989746	-1.400000	-3.710000	3.780000	268.00	-0.109133	-0.115465		
0.25	3.50	3.00	4.00	4.25	1.25	2.00	0.25	1.00	1.75	1.75	1.00	1.25	0.75	1.75	0.50	1.00	-0.162109	0.120605	0.984863	-1.610000	1.820000	0.770000	280.00	-0.096310	-0.056900	1.00	1.75	4.75	5.00	3.00	3.75	0.25	1.50	1.00	1.00	0.75	1.00	1.25	0.50	0.50	1.25	-0.162598	0.127930	0.997559	-1.540000	-3.920000	3.850000	278.00	-0.108587	-0.108252		
0.26	3.50	3.25	4.00	4.50	1.25	2.00	0.25	1.00	2.25	2.00	1.00	1.25	0.75	2.00	0.50	1.00	-0.166016	0.124023	0.979980	-1.750000	1.960000	0.700000	295.00	-0.086993	-0.049870	1.25	1.00	4.50	5.00	2.75	3.25	0.25	1.50	1.00	1.25	0.75	1.00	1.25	0.50	0.50	1.25	-0.157227	0.124512	0.992676	-1.610000	-3.850000	3.850000	266.00	-0.098309	-0.103829		
0.27	3.50	3.25	4.00	4.50	1.25	1.75	0.25	1.00	2.25	2.00	1.00	1.00	1.00	1.75	0.50	1.00	-0.166992	0.121094	0.981934	-1.680000	1.890000	0.770000	291.00	-0.090486	-0.050273	1.00	1.00	4.75	5.00	3.00	3.25	0.25	1.75	1.00	1.00	0.75	1.00	0.75	0.25	0.50	1.25	-0.162598	0.119629	0.994141	-1.470000	-3.920000	3.850000	264.00	-0.107187	-0.104276		
0.28	3.50	3.25	4.00	4.50	1.25	1.75	0.25	0.75	2.00	1.75	1.00	1.00	1.00	1.75	0.50	1.25	-0.166992	0.121094	0.981934	-1.680000	1.890000	0.770000	283.00	-0.095909	-0.051632	1.00	1.50	5.00	5.25	3.00	3.00	0.25	1.50	1.00	1.00	0.75	1.00	1.00	0.50	0.50	1.25	-0.161133	0.119141	0.992188	-1.400000	-3.850000	3.850000	271.00	-0.110171	-0.099900		
0.29	3.50	3.25	4.00	4.50	1.25	2.00	0.25	1.00	2.00	1.75	1.00	1.00	1.25	1.75	0.50	1.25	-0.162109	0.123535	0.982910	-1.820000	1.890000	0.770000	291.00	-0.093571	-0.060401	1.50	1.00	4.75	5.25	2.75	3.25	0.25	1.25	1.00	1.00	0.75	1.00	1.00	0.25	0.50	1.25	-0.159180	0.115723	0.993652	-1.540000	-3.850000	3.850000	264.00	-0.114447	-0.098302		
0.30	3.50	3.25	4.00	4.50	1.25	2.00	0.25	1.00	2.00	1.50	1.00	1.00	1.25	1.25	0.50	1.25	-0.161621	0.121582	0.979004	-1.820000	1.890000	0.700000	285.00	-0.103310	-0.064707	1.50	1.25	4.75	5.25	3.25	3.25	0.25	1.25	1.00	1.00	0.75	1.00	0.75	0.25	0.50	1.25	-0.162598	0.119629	0.994141	-1.470000	-3.850000	3.850000	269.00	-0.119116	-0.093161		
0.31	3.50	3.25	4.00	4.50	1.25	2.00	0.25	1.00	2.00	2.00	1.00	1.25	0.75	1.25	0.50	1.00	-0.164551	0.121094	0.977539	-1.680000	1.820000	0.770000	287.00	-0.100794	-0.057907	1.50	1.50	4.75	5.00	3.50	3.00	0.25	1.50	1.00	1.00	0.75	1.00	1.00	0.50	0.50	1.25	-0.158691	0.124512	0.994629	-1.470000	-3.990000	3.920000	276.00	-0.112422	-0.094003		
0.32	3.50	3.25	4.00	4.50	1.25	2.00	0.25	1.00	2.00	2.00	1.00	1.00	1.00	1.75	0.50	1.00	-0.164551	0.121094	0.977539	-1.680000	1.820000	0.770000	290.00	-0.094595	-0.055533	1.50	1.25	4.50	5.00	3.00	3.25	0.25	1.50	1.00	0.75	0.75	1.00	1.00	0.50	0.50	1.25	-0.158691	0.123047	0.995605	-1.470000	-4.060000	3.850000	267.00	-0.111833	-0.101193		
0.33	3.50	3.25	4.00	4.50	1.50	2.00	0.25	1.00	1.75	1.75	1.00	0.75	1.00	1.50	0.50	1.00	-0.161621	0.124512	0.984863	-1.680000	1.610000	0.840000	283.00	-0.107488	-0.058552	1.25	1.50	4.75	5.00	3.25	3.25	0.25	1.50	1.00	0.75	0.75	1.00	1.00	0.50	0.50	1.25	-0.163086	0.114746	0.993652	-1.540000	-4.060000	3.850000	271.00	-0.113225	-0.100233		
0.34	3.50	3.00	4.00	4.50	1.50	2.00	0.25	1.00	1.75	1.75	1.00	1.00	0.75	1.25	0.50	1.00	-0.165527	0.122559	0.979492	-1.470000	1.680000	0.910000	279.00	-0.108043	-0.058563	1.00	1.25	4.75	5.00	3.25	3.75	0.25	1.50	1.00	1.00	0.75	1.00	1.00	0.25	0.50	1.00	-0.161621	0.120117	1.000000	-1.540000	-3.990000	3.850000	271.00	-0.111918	-0.104296		
0.35	3.50	3.00	3.75	4.50	1.25	2.00	0.25	1.00	1.75	1.75	1.00	0.75	1.00	1.50	0.50	1.00	-0.163086	0.119629	0.976562	-1.610000	1.750000	0.770000	276.00	-0.103502	-0.060192	1.00	1.50	4.75	5.00	3.00	3.75	0.25	1.75	1.00	0.75	0.75	1.00	1.00	0.25	0.50	1.00	-0.158691	0.119629	0.995605	-1.400000	-4.130000	3.850000	272.00	-0.115965	-0.111455		
0.36	3.50	3.25	3.75	4.75	1.25	2.00	0.25	1.00	1.75	2.00	1.00	1.00	1.00	1.75	0.50	1.00	-0.161621	0.125488	0.980957	-1.540000	1.680000	0.770000	287.00	-0.098420	-0.061742	1.25	1.50	5.00	5.00	2.75	3.75	0.25	1.50	1.00	0.75	0.75	1.00	1.00	0.25	0.50	1.00	-0.162109	0.121094	0.994629	-1.540000	-4.060000	3.920000	271.00	-0.121133	-0.105638		
0.37	3.50	3.25	3.50	4.50	1.25	1.75	0.25	1.00	1.75	2.00	1.00	1.25	1.00	1.75	0.50	1.00	-0.158203	0.123047	0.982422	-1.750000	1.750000	0.630000	282.00	-0.092121	-0.061797	1.50	1.50	5.00	5.00	2.50	4.00	0.25	1.50	0.75	1.00	0.75	0.75	1.00	0.25	0.50	1.25	-0.162109	0.121094	0.994629	-1.540000	-4.060000	3.920000	271.00	-0.125553	-0.108820		
0.38	3.50	3.25	4.00	4.50	1.25	2.00	0.25	1.00	1.75	1.50	1.00	1.50	1.00	1.75	0.50	1.25	-0.155762	0.123047	0.983887	-1.820000	1.750000	0.700000	288.00	-0.096723	-0.066063	1.50	1.50	5.00	5.25	3.25	3.75	0.25	1.50	1.00	1.00	0.75	1.00	1.00	0.25	0.50	1.25	-0.162598	0.120117	0.999512	-1.470000	-4.060000	3.920000	284.00	-0.119882	-0.101448		
0.39	3.50	3.25	4.00	4.50	1.25	2.00	0.25	1.00	2.25	1.75	1.00	1.25	0.75	1.75	0.50	1.25	-0.163574	0.123047	0.986328	-1.820000	1.750000	0.770000	292.00	-0.091085	-0.053442	1.75	1.50	5.00	5.25	3.25	3.75	0.25	1.75	0.75	0.75	0.75	1.00	1.00	0.50	0.50	1.00	-0.162598	0.120117	0.999512	-1.470000	-4.060000	3.920000	285.00	-0.126329	-0.105723		
0.40	3.50	3.25	4.00	4.50	1.25	1.75	0.25	0.75	2.25	1.75	1.00	1.25	1.00	1.75	0.50	1.00	-0.164062	0.122070	0.979004	-1.540000	1.820000	0.770000	287.00	-0.091662	-0.049147	1.50	1.50	4.75	5.00	3.00	3.00	0.25	1.75	1.00	0.75	0.75	1.00	1.00	0.50	0.50	1.00	-0.166504	0.114746	0.992676	-1.610000	-3.990000	3.710000	271.00	-0.116176	-0.101077		
0.41	3.50	3.25	4.00	4.50	1.25	1.75	0.25	0.75	2.00	1.75	1.00	1.50	1.00	1.75	0.50	1.00	-0.165527	0.121094	0.985352	-2.030000	1.960000	0.630000	287.00	-0.092770	-0.054602	1.75	1.50	4.75	5.25	3.00	3.75	0.25	1.50	1.00	1.00	0.75	1.00	1.00	0.25	0.50	1.00	-0.163086	0.120605	0.990234	-1.540000	-3.990000	3.780000	280.00	-0.123040	-0.101923		
0.42	3.50	3.00	4.00	4.75	1.25	2.00	0.25	0.75	1.75	1.50	1.00	1.25	1.00	1.50	0.25	1.00	-0.160156	0.123047	0.978027	-1.960000	1.890000	0.700000	277.00	-0.109772	-0.061120	1.50	1.50	4.75	5.50	3.00	3.75	0.25	1.50	1.00	0.75	1.00	1.00	0.75	0.25	0.50	1.25	-0.164062	0.115723	0.994141	-1.540000	-4.060000	3.920000	280.00	-0.122176	-0.104719		
0.43	3.50	3.25	4.00	4.50	1.25	2.00	0.25	0.75	1.75	1.75	1.00	1.00	0.75	1.50	0.25	1.00	-0.166016	0.120117	0.985352	-1.820000	1.820000	0.770000	275.00	-0.112290	-0.054381	1.50	1.00	4.75	5.50	3.00	3.75	0.00	1.50	1.00	1.00	0.75	1.25	0.75	0.25	0.50	1.25	-0.160645	0.120117	0.998535	-1.610000	-3.990000	3.920000	274.00	-0.117217	-0.108307		
0.44	3.50	3.25	4.00	4.50	1.50	2.00	0.25	0.75	1.50	1.75	1.00	1.25	0.50	1.75	0.50	1.25	-0.162109	0.120117	0.979980	-1.680000	1.820000	0.840000	280.00	-0.105348	-0.055812	1.50	1.00	4.50	5.25	3.00	4.25	0.25	1.50	1.00	0.75	0.75	1.25	1.00	0.50	0.50	1.25	-0.154785	0.120117	0.997070	-1.540000	-3.920000	3.850000	279.00	-0.109786	-0.109609		
0.45	3.50	2.50	4.00	4.50	1.50	2.00	0.25	1.00	2.00	1.75	1.00	1.25	0.75	1.50	0.50	1.25	-0.161133	0.118164	0.978516	-1.680000	1.820000	0.770000	284.00	-0.091275	-0.054967	1.50	1.50	4.50	5.25	2.75	3.75	0.25	1.75	1.00	0.75	0.75	1.00	1.00	0.25	0.50	1.25	-0.160645	0.121094	0.997070	-1.610000	-3.850000	3.850000	275.00	-0.118838	-0.113055		
0.46	3.50	2.50	4.00	4.50	1.50	2.00	0.25	1.00	2.00	1.75	1.00	1.25	1.00	1.25	0.50	1.25	-0.161133	0.121094	0.975586	-1.820000	1.820000	0.770000	284.00	-0.092911	-0.059428	1.25	1.50	4.50	5.25	3.25	3.75	0.25	1.50	1.00	1.00	0.75	1.00	1.00	0.25	0.50	1.00	-0.155273	0.121582	0.995605	-1.540000	-3.850000	3.920000	275.00	-0.116925	-0.105829		
0.47	3.50	3.25	3.75	4.50	1.25	2.00	0.25	0.75	1.75	2.00	1.00	0.75	0.75	1.50	0.25	1.00	-0.159668	0.122559	0.977051	-1.680000	1.680000	0.840000	272.00	-0.110614	-0.052556	1.25	1.50	4.50	5.00	3.25	4.25	0.25	1.75	1.00	1.00	0.75	1.00	0.75	0.50	0.50	1.00	-0.157227	0.116699	0.995117	-1.470000	-3.640000	3.780000	281.00	-0.113090	-0.106766		
0.48	3.50	3.25	3.75	4.50	1.25	1.75	0.25	0.75	1.75	2.00	1.00	1.00	0.75	1.75	0.50	1.00	-0.166504	0.121094	0.979980	-1.610000	1.820000	0.770000	277.00	-0.099236	-0.051328	1.25	1.50	4.75	5.50	3.25	4.25	0.25	1.50	1.00	0.75	0.75	1.00	0.75	0.25	0.50	1.00	-0.162598	0.119141	0.990723	-1.540000	-3.850000	3.780000	281.00	-0.125476	-0.106988		
0.49	3.50	3.25	4.00	4.50	1.25	2.00	0.25	0.75	1.75	1.75	1.00	1.00	1.00	1.50	0.50	1.00	-0.166504	0.121094	0.979980	-1.610000	1.820000	0.770000	279.00	-0.105783	-0.057530	1.50	1.50	5.00	5.50	3.25	4.25	0.25	1.75	1.00	0.75	0.75	1.00	0.75	0.25	0.50	1.00	-0.158691	0.115234	0.995117	-1.470000	-3.780000	3.780000	290.00	-0.127623	-0.106913		
0.50	3.50	3.25	4.00	4.50	1.75	2.00	0.25	0.75	1.50	1.75	1.00	0.75	1.00	1.50	0.50	1.00	-0.164062	0.121582	0.974609	-1.400000	1.820000	0.770000	279.00	-0.112741	-0.056890	1.75	1.50	4.75	5.50	3.00	4.25	0.25	1.75	1.00	0.75	0.75	1.00	1.00	0.25	0.50	1.00	-0.156738	0.116699	0.989746	-1.470000	-3.780000	3.850000	289.00	-0.126632	-0.110791		
0.51	3.50	3.25	4.00	4.50	1.50	2.00	0.25	1.00	2.25	1.75	1.00	1.25	1.00	1.75	0.50	1.00	-0.161621	0.125977	0.974609	-1.610000	1.680000	0.840000	296.00	-0.091524	-0.054121	1.50	1.50	4.75	5.25	2.75	4.25	0.25	1.50	1.00	0.75	0.75	1.00	0.75	0.25	0.50	1.25	-0.159180	0.121582	0.999023	-1.400000	-3.920000	3.710000	277.00	-0.124198	-0.108057		
0.52	3.50	3.50	4.00	4.50	1.50	2.00	0.25	1.00	2.25	1.50	1.00	1.25	1.00	1.50	0.50	1.00	-0.160645	0.124512	0.977539	-1.610000	1.680000	0.770000	293.00	-0.099905	-0.057425	1.50	1.25	4.75	5.25	3.25	4.00	0.25	2.00	1.00	1.00	0.75	1.00	0.75	0.25	0.50	1.00	-0.157715	0.119629	0.996582	-1.470000	-4.060000	3.780000	286.00	-0.118177	-0.107793		
0.53	3.50	3.25	4.00	4.50	1.25	1.75	0.25	1.00	1.75	1.50	1.25	1.25	0.75	1.50	0.50	1.00	-0.158203	0.125488	0.984863	-1.400000	1.820000	0.770000	281.00	-0.103572	-0.060465	1.75	1.75	4.75	5.25	3.25	4.25	0.25	1.75	1.00	0.75	0.75	1.00	1.00	0.50	0.50	1.00	-0.155762	0.119141	0.994141	-1.470000	-3.990000	3.710000	293.00	-0.123731	-0.106813		
0.54	3.50	3.25	4.00	4.50	1.50	2.00	0.25	0.75	2.00	1.50	1.00	1.25	0.75	1.25	0.50	1.00	-0.154297	0.126465	0.982910	-1.400000	1.680000	0.770000	281.00	-0.107890	-0.054771	1.75	1.50	4.75	5.25	3.00	4.25	0.25	1.75	1.00	0.75	1.00	1.00	0.75	0.50	0.50	1.00	-0.155762	0.124023	0.994141	-1.540000	-3.850000	3.710000	289.00	-0.120708	-0.105467		
0.55	3.50	3.25	3.75	4.50	1.75	2.00	0.25	0.75	2.50	1.25	0.75	1.00	1.00	1.50	0.50	1.00	-0.159180	0.124023	0.978516	-1.540000	1.680000	0.770000	284.00	-0.101832	-0.047781	1.25	1.25	4.75	5.25	3.00	4.25	0.25	1.75	1.00	0.75	1.00	1.00	0.75	0.25	0.50	1.00	-0.156250	0.113281	0.997559	-1.470000	-3.780000	3.710000	280.00	-0.117425	-0.110610		
0.56	3.50	3.25	3.75	4.50	1.50	2.00	0.25	0.75	2.25	1.50	0.75	1.00	1.00	1.25	0.50	1.00	-0.161133	0.123535	0.983398	-1.470000	1.750000	0.770000	278.00	-0.106155	-0.052854	1.50	1.50	4.75	5.00	3.00	4.25	0.25	1.75	1.00	0.75	0.75	0.75	1.00	0.50	0.75	1.00	-0.157715	0.120117	0.997070	-1.400000	-3.710000	3.640000	283.00	-0.116062	-0.106802		
0.57	3.50	3.50	3.75	4.50	1.25	2.25	0.25	1.00	2.00	1.50	1.00	1.00	1.00	2.00	0.50	1.00	-0.156738	0.121094	0.983887	-1.260000	1.890000	0.840000	289.00	-0.098011	-0.059875	1.25	1.75	4.75	5.00	3.00	4.25	0.25	1.50	1.00	0.75	0.75	0.75	1.00	0.50	0.50	1.25	-0.161621	0.123047	0.995117	-1.400000	-3.710000	3.710000	278.00	-0.119591	-0.106666		
0.58	3.50	3.25	3.75	4.75	1.75	2.00	0.25	1.00	2.25	1.50	0.50	1.00	1.00	2.00	0.50	1.00	-0.160156	0.122559	0.982910	-1.190000	2.030000	0.840000	290.00	-0.099035	-0.052241	1.50	1.50	4.75	5.50	3.50	4.25	0.25	1.75	0.75	0.75	0.75	1.00	0.75	0.25	0.50	1.25	-0.161133	0.121094	0.996094	-1.330000	-3.780000	3.710000	288.00	-0.128255	-0.112047		
0.59	3.50	3.25	3.75	4.75	1.75	2.00	0.25	0.75	2.25	1.50	1.00	0.75	0.75	1.75	0.50	1.00	-0.162109	0.122559	0.982910	-0.910000	1.960000	0.980000	285.00	-0.102617	-0.045825	1.75	1.50	4.75	5.75	3.25	4.25	0.25	2.00	0.75	0.75	0.75	1.00	0.75	0.25	0.50	1.00	-0.160156	0.119141	0.990723	-1.400000	-3.780000	3.710000	292.00	-0.132582	-0.115182		
0.60	3.50	3.25	3.50	4.75	1.50	2.00	0.25	1.00	2.25	1.75	1.00	1.00	0.75	1.75	0.50	1.00	-0.166992	0.125000	0.987793	-1.120000	1.820000	0.980000	289.00	-0.094461	-0.053307	1.25	1.50	4.50	5.50	3.00	4.25	0.25	2.00	1.00	0.75	0.75	0.75	0.75	0.25	0.50	1.00	-0.164551	0.120117	0.996094	-1.400000	-3.780000	3.640000	281.00	-0.124273	-0.115716		
0.61	3.50	3.25	4.00	4.75	1.50	2.00	0.25	0.75	2.25	1.75	1.00	1.25	0.75	1.75	0.50	1.25	-0.162109	0.125488	0.984375	-1.260000	2.170000	0.910000	294.00	-0.093986	-0.049921	1.50	1.75	4.75	5.25	3.00	4.25	0.25	2.00	1.00	0.75	0.75	0.75	0.75	0.25	0.50	1.00	-0.162109	0.119629	0.995117	-1.400000	-3.570000	3.570000	285.00	-0.128575	-0.111428		
0.62	3.50	3.50	4.00	4.75	1.50	2.00	0.25	0.75	2.25	1.50	1.00	1.25	0.75	1.75	0.50	1.25	-0.163086	0.125488	0.981445	-1.330000	2.170000	0.910000	294.00	-0.099009	-0.051677	1.50	1.50	4.75	5.00	3.00	4.00	0.25	1.75	1.00	0.75	0.75	0.75	1.00	0.25	0.50	1.25	-0.161621	0.120605	0.991211	-1.680000	-3.710000	3.710000	278.00	-0.121863	-0.108457		
0.63	3.50	3.25	4.00	4.50	1.25	2.00	0.25	1.00	2.00	1.75	1.00	1.00	1.00	1.50	0.50	1.00	-0.160645	0.123535	0.978027	-1.260000	2.100000	0.840000	286.00	-0.100852	-0.058121	1.50	1.50	4.75	5.25	3.00	3.25	0.25	1.75	0.75	1.00	0.75	0.75	1.00	0.25	0.50	1.25	-0.165527	0.122559	1.000488	-1.470000	-3.710000	3.640000	272.00	-0.123550	-0.107724		
0.64	3.50	3.25	3.75	4.50	1.25	2.00	0.25	1.00	2.00	1.50	1.00	1.25	1.00	1.50	0.50	1.00	-0.160645	0.123535	0.978027	-1.260000	2.100000	0.840000	283.00	-0.099598	-0.062499	1.25	1.50	4.75	5.25	3.00	3.25	0.25	1.50	0.75	1.00	0.75	1.00	1.00	0.25	0.50	1.25	-0.157227	0.116699	1.001465	-1.680000	-3.710000	3.640000	269.00	-0.119544	-0.107642		
0.65	3.50	3.25	4.00	4.75	1.25	2.00	0.25	1.00	1.50	1.50	1.00	1.25	1.00	1.50	0.50	1.00	-0.159668	0.119629	0.977539	-0.840000	1.960000	1.050000	282.00	-0.110318	-0.069713	1.50	1.50	5.00	5.00	2.50	3.25	0.25	1.50	0.75	1.00	0.75	1.00	0.75	0.25	0.50	1.25	-0.157227	0.116699	1.001465	-1.680000	-3.710000	3.640000	264.00	-0.123975	-0.103226		
0.66	3.50	3.25	4.00	4.75	1.25	2.00	0.25	1.00	2.25	1.25	1.00	1.25	1.25	1.25	0.25	1.00	-0.159668	0.119629	0.977539	-0.840000	1.960000	1.050000	286.00	-0.107719	-0.064348	2.00	1.75	5.00	5.50	2.75	4.25	0.25	1.50	0.75	0.75	0.75	1.00	0.75	0.25	0.50	1.25	-0.161133	0.119141	0.991211	-1.680000	-3.430000	3.570000	286.00	-0.137638	-0.108159		
0.67	3.50	3.25	4.00	4.50	1.25	1.75	0.25	1.00	2.25	1.25	1.00	1.00	1.25	1.25	0.50	1.00	-0.162109	0.126465	0.976562	-0.490000	2.030000	1.330000	281.00	-0.104015	-0.059244	1.50	1.50	4.75	5.50	2.75	4.25	0.00	1.50	1.00	1.00	0.75	1.00	0.75	0.25	0.50	1.25	-0.154785	0.119141	0.993652	-1.680000	-3.430000	3.570000	279.00	-0.125114	-0.112028		
0.68	3.25	3.25	4.00	4.50	1.25	2.00	0.25	1.00	2.00	2.00	1.00	1.25	1.00	1.50	0.50	1.00	-0.167480	0.125000	0.976562	-0.280000	2.170000	1.260000	288.00	-0.092959	-0.060475	1.25	1.50	5.00	5.50	2.75	4.25	0.25	1.75	1.00	0.75	0.75	1.00	0.75	0.25	0.50	1.00	-0.161621	0.122070	0.996094	-1.820000	-3.780000	3.710000	282.00	-0.125353	-0.111717		
0.69	3.50	3.25	3.75	4.50	1.25	2.00	0.25	1.00	2.00	2.00	1.00	1.50	1.00	1.25	0.25	1.25	-0.160645	0.123535	0.981445	-0.280000	2.310000	1.120000	287.00	-0.097123	-0.064923	1.50	1.75	5.00	5.50	2.75	3.75	0.25	1.50	1.00	0.75	0.75	1.00	0.75	0.25	0.50	1.00	-0.159180	0.119141	0.996582	-1.890000	-3.780000	3.710000	278.00	-0.130853	-0.103869		
0.70	3.50	3.25	4.00	4.50	1.25	2.25	0.25	1.00	1.75	2.00	1.00	1.25	1.25	1.25	0.50	1.25	-0.162109	0.123535	0.984375	-0.210000	2.170000	1.120000	291.00	-0.099226	-0.069782	1.50	2.00	4.75	5.50	2.75	3.75	0.25	1.50	1.00	0.75	0.75	1.00	1.00	0.25	0.50	1.00	-0.158691	0.116699	0.994141	-1.890000	-3.710000	3.710000	280.00	-0.129633	-0.108651		
0.71	3.50	3.25	4.00	4.75	1.25	2.25	0.25	1.25	1.75	2.00	1.00	1.25	1.25	1.50	0.50	1.00	-0.159180	0.124512	0.987793	-0.490000	2.170000	1.050000	298.00	-0.098367	-0.072202	1.75	1.75	5.00	5.25	2.75	3.75	0.25	1.50	1.00	1.00	0.75	1.00	1.00	0.50	0.50	1.00	-0.156738	0.123535	0.998535	-1.890000	-3.780000	3.780000	284.00	-0.122795	-0.100204		
0.72	3.50	3.25	3.75	4.75	1.25	2.25	0.00	1.25	1.75	1.75	1.00	1.25	1.00	1.25	0.50	1.00	-0.166992	0.125977	0.980957	-0.490000	2.100000	0.980000	286.00	-0.107241	-0.077610	1.75	1.75	4.75	5.50	2.50	3.75	0.25	1.50	1.00	1.00	0.75	1.00	0.75	0.50	0.50	1.00	-0.165527	0.120605	0.991211	-2.030000	-3.640000	3.780000	280.00	-0.125030	-0.101924		
0.73	3.50	3.25	4.00	4.75	1.25	2.50	0.25	1.25	1.50	1.50	1.00	1.50	1.25	1.25	0.50	1.00	-0.164062	0.124512	0.983398	-0.420000	2.030000	0.980000	293.00	-0.108822	-0.083154	1.75	1.75	5.00	5.50	2.75	3.75	0.25	1.50	1.00	0.75	0.75	1.00	0.75	0.25	0.50	1.25	-0.161621	0.119141	0.996582	-2.170000	-3.850000	3.850000	282.00	-0.130965	-0.103011		
0.74	3.50	3.00	4.00	4.50	1.25	2.50	0.25	1.25	1.50	1.25	0.75	1.50	1.25	1.25	0.50	1.00	-0.159180	0.123047	0.977539	-0.420000	1.750000	0.910000	284.00	-0.110711	-0.082241	1.75	1.50	5.00	5.50	2.75	4.00	0.25	1.50	1.00	0.75	0.75	0.75	0.75	0.25	0.50	1.00	-0.157227	0.121094	0.997559	-2.030000	-3.850000	3.920000	279.00	-0.134141	-0.101440		
0.75	3.50	2.50	3.75	4.75	1.25	2.25	0.25	1.25	1.25	1.50	1.00	1.50	1.25	1.25	0.50	1.00	-0.166992	0.123047	0.980957	-0.630000	1.960000	0.700000	279.00	-0.103949	-0.084997	1.50	1.50	5.00	5.75	3.50	4.25	0.25	1.25	0.75	0.75	0.75	0.75	0.75	0.50	0.50	1.00	-0.161621	0.120117	0.997070	-1.960000	-3.920000	3.920000	284.00	-0.135022	-0.099956		
0.76	3.50	3.00	3.75	4.75	1.25	3.00	0.25	1.25	1.75	1.50	1.00	1.50	1.25	1.25	0.50	1.00	-0.166016	0.130859	0.979980	-0.770000	1.890000	0.630000	296.00	-0.102330	-0.083625	1.50	1.75	4.75	5.75	3.50	4.00	0.25	1.25	0.75	0.75	0.75	0.75	0.75	0.50	0.50	1.00	-0.154297	0.120117	0.995117	-2.030000	-3.850000	4.060000	281.00	-0.135793	-0.100639		
0.77	3.50	3.25	3.75	4.50	1.25	2.75	0.25	1.25	1.75	1.25	1.25	1.25	1.25	1.25	0.50	1.00	-0.158691	0.123535	0.972168	-0.770000	1.820000	0.560000	291.00	-0.105257	-0.081101	2.00	1.50	4.75	5.75	3.00	4.25	0.25	1.50	0.75	0.75	0.75	1.00	1.00	0.25	0.50	1.00	-0.155273	0.123047	0.997559	-2.100000	-3.920000	4.060000	287.00	-0.135691	-0.110589		
0.78	3.50	3.25	4.00	4.75	1.25	2.50	0.25	1.25	1.50	1.25	1.25	1.25	1.25	1.00	0.50	1.25	-0.164062	0.128418	0.979004	-0.700000	1.680000	0.700000	290.00	-0.113055	-0.085610	1.75	1.75	4.75	5.50	3.00	4.25	0.25	1.50	1.00	0.75	0.75	1.00	0.75	0.25	0.50	1.00	-0.157715	0.120605	0.993164	-2.030000	-4.060000	4.060000	285.00	-0.132231	-0.105326		
0.79	3.50	3.00	3.75	4.75	1.25	2.75	0.00	1.25	1.25	1.00	1.00	1.50	1.50	1.25	0.50	1.25	-0.159180	0.125488	0.975586	-0.420000	1.680000	0.770000	283.00	-0.113533	-0.099707	1.50	2.00	5.00	5.50	3.00	4.25	0.25	1.50	1.00	0.75	0.75	0.75	0.75	0.25	0.50	1.00	-0.159668	0.118652	0.999023	-2.170000	-4.340000	4.060000	285.00	-0.136155	-0.104202		
0.80	3.50	3.25	4.00	5.00	1.50	3.00	0.00	1.25	1.25	1.00	1.00	1.50	1.25	1.25	0.50	1.00	-0.159180	0.125488	0.975586	-0.420000	1.680000	0.770000	292.00	-0.122933	-0.096313	1.50	1.50	5.00	5.75	3.00	4.25	0.25	1.50	1.00	0.75	0.75	0.75	0.75	0.50	0.50	0.75	-0.161133	0.117676	0.988770	-2.240000	-4.270000	4.200000	284.00	-0.131750	-0.101495		
0.81	3.50	3.25	4.00	5.00	1.25	2.75	0.25	1.25	1.25	1.50	1.00	1.50	1.25	1.25	0.50	1.00	-0.166992	0.125000	0.976074	-0.280000	1.470000	0.700000	295.00	-0.114409	-0.089582	2.00	1.50	5.00	5.50	3.00	4.25	0.25	1.50	1.00	0.75	0.75	0.75	0.75	0.25	0.50	1.00	-0.163086	0.119629	0.999023	-2.100000	-4.410000	4.270000	286.00	-0.136449	-0.099761		
0.82	3.25	3.25	4.00	5.00	1.25	2.75	0.25	1.25	1.25	1.25	0.75	1.50	1.25	1.00	0.25	1.00	-0.165527	0.127930	0.982910	-0.070000	1.050000	0.770000	284.00	-0.125917	-0.094205	1.75	2.00	5.75	5.75	3.50	4.25	0.25	1.50	1.00	0.75	0.75	0.75	0.75	0.25	0.50	0.75	-0.169922	0.119141	0.991699	-1.680000	-4.760000	4.340000	302.00	-0.144668	-0.094999		
0.83	3.50	3.50	4.00	5.00	1.25	4.00	0.25	1.25	1.25	1.00	0.75	1.25	1.25	1.00	0.50	1.00	-0.166504	0.123535	0.979492	0.490000	0.140000	0.910000	298.00	-0.132579	-0.100089	1.75	2.00	5.75	6.00	3.50	4.00	0.25	1.50	1.00	0.50	0.75	0.75	0.75	0.25	0.50	0.75	-0.165039	0.114746	1.003418	-0.980000	-5.670000	4.760000	299.00	-0.148863	-0.095872		
0.84	3.50	3.50	4.00	5.00	1.25	4.00	0.00	1.50	1.25	1.00	1.00	1.50	1.25	1.00	0.50	1.00	-0.172852	0.127930	0.980957	1.190000	-0.630000	1.120000	303.00	-0.128099	-0.109060	2.00	2.00	6.00	6.25	3.50	4.50	0.25	1.50	1.00	0.75	0.50	0.75	0.75	0.25	0.50	0.75	-0.177246	0.116699	0.999023	0.840000	-7.000000	5.740000	312.00	-0.152829	-0.095291		
0.85	3.50	3.50	4.25	5.50	1.25	4.00	0.00	1.25	1.25	1.25	1.00	1.50	1.25	0.75	0.50	1.00	-0.177734	0.124023	0.989746	2.100000	-1.610000	1.470000	308.00	-0.133732	-0.106589	2.00	2.25	6.00	6.25	3.50	4.50	0.25	1.50	1.00	0.75	0.50	0.75	0.75	0.25	0.50	0.75	-0.177246	0.116699	0.999023	0.840000	-7.000000	5.740000	314.00	-0.154598	-0.095767		
0.86	3.50	3.50	4.25	5.50	1.25	4.00	0.00	1.50	1.00	1.25	1.00	1.50	1.50	0.50	0.50	1.00	-0.171387	0.123047	0.984375	3.010000	-2.940000	1.890000	308.00	-0.137652	-0.117609	2.00	2.00	6.00	6.25	3.50	4.50	0.25	1.50	0.75	0.50	0.50	0.75	0.75	0.25	0.50	0.75	-0.171875	0.119141	1.008301	0.840000	-6.860000	6.160000	306.00	-0.159881	-0.100139		
0.87	3.50	3.50	4.50	6.50	1.75	4.00	0.00	1.75	1.00	1.25	0.75	1.25	1.50	0.50	0.50	0.75	-0.163574	0.131836	0.990723	3.220000	-3.780000	2.310000	323.00	-0.148982	-0.117404	2.25	2.00	6.25	6.25	3.50	4.50	0.25	1.50	0.50	0.50	0.50	0.75	0.75	0.25	0.50	0.50	-0.164062	0.126953	1.005859	-0.350000	-6.230000	6.440000	307.00	-0.168810	-0.099736		
0.88	3.50	3.75	4.75	7.25	1.75	4.25	0.00	1.75	0.75	1.25	1.00	1.25	1.25	0.50	0.25	0.75	-0.175293	0.127930	1.006836	3.150000	-4.340000	2.660000	333.00	-0.161622	-0.121425	2.50	2.75	6.25	7.00	3.50	4.50	0.25	1.50	0.50	0.50	0.25	0.75	0.75	0.00	0.25	0.50	-0.169434	0.125977	1.009766	-1.680000	-5.740000	6.790000	316.00	-0.189304	-0.104200		
0.89	4.00	4.00	5.00	7.50	1.75	4.25	0.00	1.75	0.75	1.25	0.50	0.75	1.50	0.50	0.00	0.75	-0.175781	0.123047	0.996582	3.430000	-4.970000	3.080000	335.00	-0.181405	-0.117496	2.50	2.75	7.00	7.00	3.25	4.50	0.00	1.25	0.50	0.50	0.25	0.75	0.50	0.25	0.25	0.25	-0.149414	0.123535	1.007812	-3.500000	-4.900000	6.860000	313.00	-0.197366	-0.096599		
0.90	4.00	4.50	5.50	8.50	1.75	4.25	0.00	1.75	0.75	1.00	0.50	0.75	1.50	0.25	0.00	0.50	-0.165039	0.126953	1.006348	3.850000	-5.810000	3.430000	348.00	-0.196691	-0.120337	2.50	3.00	7.50	7.00	3.25	4.50	0.25	1.00	0.50	0.25	0.25	0.50	0.50	0.00	0.00	0.25	-0.143555	0.128418	0.997559	-6.090000	-3.500000	6.510000	311.00	-0.213930	-0.088443		
0.91	4.75	4.75	6.25	9.00	1.75	4.50	0.00	1.75	0.50	0.75	0.50	0.75	1.50	0.00	0.00	0.50	-0.163086	0.136230	0.995117	4.550000	-6.860000	3.850000	365.00	-0.214174	-0.120252	3.25	3.50	7.75	7.25	3.50	4.50	0.25	1.00	0.50	0.25	0.00	0.50	0.50	0.00	0.00	0.25	-0.152344	0.128906	0.991211	-5.460000	-2.310000	6.860000	328.00	-0.224132	-0.083480		
0.92	5.00	5.25	6.75	9.25	1.75	4.50	0.00	1.50	0.25	0.50	0.25	0.75	1.50	0.00	0.00	0.25	-0.178223	0.113770	0.996094	7.840000	-10.220000	4.690000	367.00	-0.232451	-0.118311	3.50	3.50	7.75	7.75	3.50	4.25	0.00	0.75	0.25	0.25	0.00	0.50	0.50	0.00	0.00	0.00	-0.144043	0.130371	0.992676	-4.550000	-2.100000	7.070000	322.00	-0.239330	-0.085444		
0.93	5.50	6.50	7.25	9.50	2.00	4.50	0.00	1.75	0.00	0.50	0.00	0.75	1.50	0.00	0.00	0.25	-0.166016	0.125977	1.025391	13.230000	-15.960000	5.600000	391.00	-0.244179	-0.119121	3.75	3.75	8.00	8.25	3.75	4.50	0.00	0.75	0.25	0.00	0.00	0.50	0.25	0.00	0.00	0.00	-0.144043	0.130371	0.992676	-4.550000	-2.100000	7.070000	334.00	-0.246880	-0.084445		
0.94	6.00	7.25	7.75	10.75	2.00	4.75	0.00	1.75	0.00	0.50	0.00	0.50	1.25	0.00	0.00	0.25	-0.137695	0.137695	1.007324	17.500000	-21.070000	6.090000	417.00	-0.254209	-0.116136	3.75	3.75	8.50	8.25	3.50	4.50	0.00	0.50	0.25	0.00	0.00	0.50	0.25	0.00	0.00	0.00	-0.183105	0.119141	1.011719	-2.380000	-2.520000	7.070000	333.00	-0.250527	-0.079676		
0.95	6.00	7.25	8.25	11.00	2.00	4.75	0.00	1.50	0.00	0.00	0.00	0.50	1.00	0.00	0.00	0.00	-0.124512	0.157227	0.972656	19.110001	-25.059999	6.720000	413.00	-0.266176	-0.111749	3.75	3.75	8.50	7.75	3.50	4.25	0.00	0.50	0.00	0.00	0.00	0.25	0.25	0.00	0.00	0.00	-0.180664	0.120605	1.013672	-0.630000	-4.690000	7.770000	320.00	-0.258907	-0.077584		
0.96	6.25	8.25	8.00	11.50	1.75	4.50	0.00	1.25	0.00	0.00	0.00	0.50	1.00	0.00	0.00	0.00	-0.120117	0.167969	0.940918	17.150000	-23.799999	6.580000	418.00	-0.273877	-0.111933	4.25	3.75	8.50	7.75	3.00	4.25	0.00	0.25	0.00	0.00	0.00	0.50	0.00	0.00	0.00	0.00	-0.190918	0.114746	1.082520	2.310000	-11.060000	9.030000	317.00	-0.265014	-0.072799		
0.97	6.25	8.50	8.75	11.75	1.75	4.50	0.00	1.25	0.00	0.00	0.00	0.25	0.75	0.00	0.00	0.00	-0.140625	0.169922	1.000000	13.580000	-18.760000	6.370000	426.00	-0.279322	-0.106573	4.75	4.25	8.50	8.25	2.75	4.25	0.00	0.25	0.00	0.00	0.00	0.50	0.00	0.00	0.00	0.00	-0.188965	0.099609	1.056152	6.160000	-21.070000	10.640000	329.00	-0.270363	-0.074725		
0.98	6.50	9.00	8.75	11.75	1.75	4.75	0.00	1.25	0.00	0.00	0.00	0.25	0.75	0.00	0.00	0.00	-0.136230	0.147949	0.980957	11.130000	-18.270000	5.880000	435.00	-0.280599	-0.106928	5.25	4.75	8.50	8.75	2.75	4.25	0.00	0.25	0.00	0.00	0.00	0.25	0.00	0.00	0.00	0.00	-0.176758	0.120117	1.037598	8.190000	-31.150000	11.480000	340.00	-0.277683	-0.073949		
0.99	7.25	8.75	9.00	12.00	1.75	4.75	0.00	1.25	0.00	0.00	0.00	0.25	0.75	0.00	0.00	0.00	-0.140625	0.151367	0.990234	7.420000	-17.290001	4.760000	445.00	-0.281867	-0.102746	5.25	4.75	9.00	8.75	2.75	4.25	0.00	0.25	0.00	0.00	0.00	0.00	0.00	0.00	0.00	0.00	-0.172363	0.162598	1.039551	8.470000	-38.009998	11.970000	343.00	-0.280930	-0.069957		
1.00	7.25	8.75	9.25	12.75	1.75	4.75	0.00	1.25	0.00	0.00	0.00	0.00	0.75	0.00	0.00	0.00	-0.140625	0.151367	0.990234	7.420000	-17.290001	4.760000	453.00	-0.284487	-0.102666	5.25	5.50	9.00	9.25	3.00	4.25	0.00	0.25	0.00	0.00	0.00	0.00	0.00	0.00	0.00	0.00	-0.144531	0.166016	1.032227	9.100000	-41.509998	13.510000	357.00	-0.282331	-0.072915		
1.01	7.25	9.25	9.25	12.50	1.75	4.75	0.00	1.25	0.00	0.00	0.00	0.00	0.75	0.00	0.00	0.00	-0.126465	0.158691	0.984375	6.440000	-20.580000	4.060000	455.00	-0.285694	-0.102579	6.00	5.75	9.00	9.25	3.00	4.00	0.00	0.25	0.00	0.00	0.00	0.00	0.00	0.00	0.00	0.00	-0.134766	0.141113	0.970703	9.520000	-41.790001	15.120000	363.00	-0.286366	-0.068533		
1.02	7.25	9.50	9.50	12.25	1.75	4.50	0.00	1.25	0.00	0.00	0.00	0.00	0.75	0.00	0.00	0.00	-0.106934	0.159180	0.974609	5.320000	-20.510000	3.850000	454.00	-0.286908	-0.100187	6.25	5.75	9.25	10.50	3.50	4.25	0.00	0.25	0.00	0.00	0.00	0.00	0.00	0.00	0.00	0.00	-0.117188	0.126465	0.969238	8.400000	-39.130001	14.910000	388.00	-0.284038	-0.071094		
1.03	7.50	9.75	9.75	12.25	1.75	4.50	0.00	1.00	0.00	0.00	0.00	0.00	0.75	0.00	0.00	0.00	-0.095215	0.161621	0.967773	3.780000	-18.549999	3.500000	458.00	-0.290072	-0.096138	6.25	6.00	9.25	10.75	3.50	4.25	0.00	0.25	0.00	0.00	0.00	0.00	0.00	0.00	0.00	0.00	-0.103027	0.120605	0.960938	7.350000	-36.540001	13.440001	393.00	-0.284771	-0.072585		
1.04	8.00	9.50	9.50	12.00	1.75	4.50	0.00	1.00	0.00	0.00	0.00	0.00	0.75	0.00	0.00	0.00	-0.091309	0.162109	0.948730	2.240000	-15.260000	3.150000	455.00	-0.290817	-0.094013	6.75	6.00	9.50	11.25	3.00	4.25	0.00	0.25	0.00	0.00	0.00	0.00	0.00	0.00	0.00	0.00	-0.084473	0.121582	0.938965	5.460000	-33.389999	11.970000	400.00	-0.288087	-0.072996		
1.05	8.00	9.25	9.25	12.00	1.75	4.50	0.00	1.00	0.00	0.00	0.00	0.00	0.75	0.00	0.00	0.00	-0.079102	0.170410	0.935547	0.210000	-10.360000	2.940000	451.00	-0.290373	-0.094715	7.00	6.50	9.50	11.25	2.75	4.25	0.00	0.25	0.00	0.00	0.00	0.00	0.00	0.00	0.00	0.00	-0.065918	0.119629	0.922363	4.690000	-27.299999	10.220000	404.00	-0.291113	-0.073735		
1.06	7.50	9.25	8.75	12.00	1.75	4.25	0.00	0.75	0.00	0.00	0.00	0.00	0.50	0.00	0.00	0.00	-0.082520	0.165527	0.933594	-1.960000	-5.180000	2.730000	433.00	-0.294576	-0.094011	7.00	6.50	9.25	12.25	3.25	4.25	0.00	0.00	0.00	0.00	0.00	0.00	0.00	0.00	0.00	0.00	-0.079102	0.130859	0.962402	4.550000	-22.820000	9.170000	413.00	-0.291516	-0.074095		
1.07	7.50	9.25	9.00	12.00	1.75	4.25	0.00	0.75	0.00	0.00	0.00	0.00	0.50	0.00	0.00	0.00	-0.080078	0.179688	0.947266	-3.850000	-0.210000	2.310000	435.00	-0.294405	-0.092936	7.25	6.75	9.50	12.25	3.25	4.25	0.00	0.00	0.00	0.00	0.00	0.00	0.00	0.00	0.00	0.00	-0.094727	0.123535	0.951172	5.040000	-20.160000	8.680000	420.00	-0.292614	-0.072533		
1.08	8.00	9.00	8.75	11.75	1.50	4.25	0.00	0.75	0.00	0.00	0.00	0.00	0.50	0.00	0.00	0.00	-0.097656	0.157715	0.962891	-5.250000	3.010000	2.100000	430.00	-0.296204	-0.091571	7.25	6.75	9.50	12.50	3.00	4.25	0.00	0.00	0.00	0.00	0.00	0.00	0.00	0.00	0.00	0.00	-0.078613	0.119141	0.962402	5.180000	-16.940001	7.980000	420.00	-0.293584	-0.074242		
1.09	7.50	8.75	8.75	11.75	1.50	4.25	0.00	0.75	0.00	0.00	0.00	0.00	0.50	0.00	0.00	0.00	-0.098633	0.157227	0.968262	-6.440000	5.040000	1.960000	424.00	-0.294407	-0.093440	7.25	7.25	9.50	12.50	3.00	4.50	0.00	0.00	0.00	0.00	0.00	0.00	0.00	0.00	0.00	0.00	-0.085449	0.134277	0.966309	5.530000	-14.910000	7.140000	427.00	-0.293974	-0.076306		
1.10	7.25	8.75	8.75	11.50	1.50	4.25	0.00	0.50	0.00	0.00	0.00	0.00	0.50	0.00	0.00	0.00	-0.100098	0.156250	0.979980	-7.070000	6.370000	1.680000	415.00	-0.296189	-0.091301	7.00	7.25	9.50	13.00	3.00	4.50	0.00	0.00	0.00	0.00	0.00	0.00	0.00	0.00	0.00	0.00	-0.097168	0.140625	0.957031	6.160000	-13.510000	7.070000	430.00	-0.293296	-0.079061		
1.11	7.25	8.75	8.50	11.25	1.50	4.25	0.00	0.50	0.00	0.00	0.00	0.00	0.50	0.00	0.00	0.00	-0.104004	0.152344	0.988281	-7.000000	6.860000	1.610000	410.00	-0.296433	-0.091608	7.25	7.75	9.75	13.75	3.25	4.75	0.00	0.00	0.00	0.00	0.00	0.00	0.00	0.00	0.00	0.00	-0.103027	0.133301	0.983887	7.210000	-11.760000	7.350000	451.00	-0.293059	-0.080655		
1.12	7.25	9.00	8.25	11.00	1.25	4.25	0.00	0.50	0.00	0.00	0.00	0.00	0.25	0.00	0.00	0.00	-0.109863	0.158203	0.989746	-7.070000	6.930000	1.330000	403.00	-0.300686	-0.091435	7.25	8.00	9.75	14.00	3.50	4.75	0.00	0.00	0.00	0.00	0.00	0.00	0.00	0.00	0.00	0.00	-0.091309	0.144043	0.962891	6.930000	-9.030000	6.510000	458.00	-0.292678	-0.081059		
1.13	7.00	9.00	8.25	11.00	1.25	4.00	0.00	0.50	0.00	0.00	0.00	0.00	0.25	0.00	0.00	0.00	-0.102539	0.150879	0.963867	-7.350000	7.630000	1.050000	398.00	-0.301003	-0.091492	7.50	8.25	10.25	14.50	3.50	5.25	0.00	0.00	0.00	0.00	0.00	0.00	0.00	0.00	0.00	0.00	-0.091309	0.144043	0.962891	6.930000	-9.030000	6.510000	478.00	-0.291965	-0.082180		
1.14	6.75	8.75	7.75	10.75	1.25	4.00	0.00	0.50	0.00	0.00	0.00	0.00	0.25	0.00	0.00	0.00	-0.102539	0.150879	0.972168	-7.560000	8.820000	0.630000	386.00	-0.300302	-0.093839	7.50	8.50	10.50	15.25	3.50	6.25	0.00	0.25	0.00	0.00	0.00	0.00	0.00	0.00	0.00	0.00	-0.089355	0.146484	0.968262	6.510000	-6.650000	6.090000	504.00	-0.287594	-0.089701		
1.15	6.50	8.25	7.25	10.25	1.25	4.00	0.00	0.50	0.00	0.00	0.00	0.00	0.50	0.00	0.00	0.00	-0.105957	0.143066	0.979004	-8.260000	11.690000	-0.490000	371.00	-0.296452	-0.097036	7.50	9.25	10.75	16.00	4.25	6.50	0.00	0.00	0.00	0.00	0.00	0.00	0.00	0.00	0.00	0.00	-0.089355	0.140625	0.979980	5.600000	-5.040000	5.320000	526.00	-0.287891	-0.088392		
1.16	6.25	8.25	7.00	9.50	1.00	4.00	0.00	0.50	0.00	0.00	0.00	0.00	0.25	0.00	0.00	0.00	-0.105957	0.143066	0.979004	-8.260000	11.690000	-0.490000	354.00	-0.299985	-0.096109	7.50	9.50	11.00	16.50	4.50	6.50	0.00	0.25	0.00	0.00	0.00	0.00	0.00	0.00	0.00	0.00	-0.080078	0.133789	0.960449	3.570000	-0.910000	3.010000	542.00	-0.285762	-0.090372		
1.17	6.00	7.75	6.25	9.25	1.00	4.00	0.00	0.50	0.00	0.00	0.00	0.00	0.00	0.00	0.00	0.00	-0.096680	0.144531	0.966309	-8.960000	13.720000	-1.190000	335.00	-0.301463	-0.097773	7.50	9.75	11.25	16.75	4.50	7.00	0.00	0.25	0.00	0.00	0.00	0.00	0.00	0.00	0.00	0.00	-0.080078	0.133789	0.960449	3.570000	-0.910000	3.010000	554.00	-0.284975	-0.092079		
1.18	6.00	7.25	5.75	8.75	1.00	3.00	0.00	0.50	0.00	0.00	0.00	0.00	0.25	0.00	0.00	0.00	-0.087402	0.151367	0.953613	-12.320000	20.580000	-3.360000	313.00	-0.302468	-0.094619	7.50	10.00	11.50	17.25	5.00	7.25	0.00	0.25	0.00	0.00	0.00	0.00	0.00	0.00	0.00	0.00	-0.082520	0.135254	0.946289	2.590000	1.820000	1.960000	571.00	-0.283415	-0.092147		
1.19	5.50	6.75	5.25	9.00	0.75	2.75	0.00	0.50	0.00	0.00	0.00	0.00	0.25	0.00	0.00	0.00	-0.072266	0.166016	0.931152	-15.820000	24.360001	-4.550000	297.00	-0.302508	-0.100944	8.25	10.75	11.75	18.00	5.00	8.25	0.00	0.25	0.00	0.00	0.00	0.00	0.00	0.00	0.00	0.00	-0.099609	0.159668	0.992188	2.030000	8.330000	1.470000	605.00	-0.284031	-0.094419		
1.20	5.00	5.75	4.75	8.50	0.50	2.50	0.00	0.25	0.00	0.00	0.00	0.00	0.00	0.00	0.00	0.00	-0.071289	0.166504	0.917480	-21.139999	29.540001	-5.530000	263.00	-0.308572	-0.097303	8.50	11.50	12.25	18.75	5.50	8.25	0.00	0.25	0.00	0.00	0.00	0.25	0.00	0.00	0.00	0.00	-0.113281	0.155762	1.017578	1.960000	7.770000	2.030000	634.00	-0.282555	-0.093975		
1.21	4.50	5.25	4.50	7.25	0.50	1.75	0.00	0.25	0.00	0.00	0.00	0.00	0.00	0.00	0.00	0.00	-0.101562	0.155762	0.968262	-26.740000	34.509998	-6.160000	231.00	-0.311322	-0.089747	8.50	12.25	12.50	19.25	5.50	9.25	0.00	0.50	0.00	0.00	0.00	0.25	0.00	0.00	0.00	0.00	-0.105469	0.151855	1.017578	1.960000	7.770000	2.030000	661.00	-0.280424	-0.099211		
1.22	4.25	4.50	4.00	6.25	0.50	1.25	0.00	0.25	0.00	0.00	0.00	0.00	0.00	0.00	0.00	0.00	-0.119629	0.153320	0.995117	-32.340000	36.470001	-6.510000	203.00	-0.313202	-0.083006	8.75	12.75	13.25	19.75	5.50	10.00	0.00	0.50	0.00	0.00	0.00	0.25	0.00	0.00	0.00	0.00	-0.109863	0.143555	1.022949	3.850000	4.690000	2.660000	688.00	-0.280176	-0.099607		
1.23	4.00	4.00	3.50	5.00	0.50	1.00	0.00	0.00	0.00	0.00	0.00	0.00	0.00	0.00	0.00	0.00	-0.118164	0.171387	1.046875	-36.750000	36.750000	-6.230000	172.00	-0.321106	-0.069424	8.75	13.50	13.50	19.75	6.00	10.00	0.00	0.50	0.00	0.00	0.00	0.50	0.00	0.00	0.00	0.00	-0.109375	0.153320	1.032715	5.250000	1.540000	2.660000	704.00	-0.278564	-0.099042		
1.24	3.50	3.75	3.25	4.25	0.25	0.50	0.00	0.00	0.00	0.00	0.00	0.00	0.00	0.00	0.00	0.00	-0.077148	0.160645	1.140625	-38.570000	37.029999	-5.530000	148.00	-0.328779	-0.063962	8.75	13.75	14.00	20.25	6.25	10.50	0.00	0.75	0.00	0.00	0.00	0.50	0.00	0.00	0.00	0.00	-0.098145	0.162598	1.013672	6.090000	-0.350000	2.590000	727.00	-0.276267	-0.100817		
1.25	3.50	3.50	2.50	3.50	0.00	0.25	0.00	0.00	0.00	0.00	0.00	0.00	0.00	0.00	0.00	0.00	0.295898	0.352539	1.247070	-42.420002	38.150002	-4.760000	126.00	-0.341190	-0.060322	9.00	13.75	14.25	20.25	6.00	10.50	0.00	1.00	0.00	0.00	0.00	0.25	0.00	0.00	0.00	0.00	-0.106934	0.166016	1.004395	5.740000	-0.770000	2.520000	731.00	-0.277508	-0.100773		
1.26	3.25	2.25	2.00	3.25	0.00	0.00	0.00	0.00	0.00	0.00	0.00	0.00	0.00	0.00	0.00	0.00	1.001953	0.456055	1.513184	-46.549999	46.619999	-10.220000	103.00	-0.341673	-0.051649	9.25	13.75	14.00	20.25	6.00	11.00	0.00	1.50	0.00	0.00	0.00	0.25	0.25	0.00	0.00	0.00	-0.104492	0.175293	1.007324	4.340000	-0.630000	2.170000	744.00	-0.273438	-0.105594		
1.27	2.50	1.25	1.25	2.75	0.00	0.00	0.00	0.00	0.00	0.00	0.00	0.00	0.00	0.00	0.00	0.00	0.454590	0.507812	1.840820	-28.000000	39.619999	-25.760000	75.00	-0.338792	-0.056831	9.00	13.75	13.75	20.25	6.50	11.00	0.00	1.75	0.00	0.00	0.00	0.00	0.25	0.00	0.00	0.00	-0.098633	0.185059	1.008789	2.660000	0.070000	1.820000	746.00	-0.272400	-0.106538		
1.28	2.25	0.75	1.25	2.00	0.00	0.00	0.00	0.00	0.00	0.00	0.00	0.00	0.00	0.00	0.00	0.00	0.668945	0.307129	1.322754	-3.010000	35.910000	-32.830002	60.00	-0.337212	-0.034781	9.25	13.50	14.00	20.00	6.50	11.00	0.00	1.75	0.00	0.00	0.00	0.25	0.25	0.00	0.00	0.00	-0.096680	0.181641	0.993652	0.700000	0.840000	1.680000	748.00	-0.270780	-0.105233		
1.29	1.00	1.00	1.00	2.00	0.00	0.00	0.00	0.00	0.00	0.00	0.00	0.00	0.00	0.00	0.00	0.00	0.664062	0.259277	1.200684	-19.250000	29.610001	-37.450001	48.00	0.000000	0.000000	9.25	13.50	14.00	20.00	6.25	10.75	0.00	1.75	0.00	0.00	0.00	0.25	0.25	0.00	0.00	0.00	-0.095703	0.175293	0.973145	-1.680000	2.520000	1.610000	743.00	-0.271669	-0.105235		
1.30	0.50	1.00	1.00	1.75	0.00	0.00	0.00	0.00	0.00	0.00	0.00	0.00	0.00	0.00	0.00	0.00	0.639648	0.481934	1.175293	-38.430000	23.940001	-38.500000	41.00	0.000000	0.000000	9.00	13.25	13.75	20.00	6.25	10.75	0.00	1.75	0.00	0.00	0.00	0.25	0.25	0.00	0.00	0.00	-0.103027	0.166504	0.999023	-3.430000	3.990000	1.610000	736.00	-0.270852	-0.106423		
1.31	1.00	0.25	0.75	1.50	0.00	0.00	0.00	0.00	0.00	0.00	0.00	0.00	0.00	0.00	0.00	0.00	0.712891	0.570312	1.121582	-34.650002	18.690001	-38.009998	34.00	0.000000	0.000000	9.00	13.00	13.50	19.75	6.00	10.75	0.00	2.00	0.00	0.00	0.00	0.25	0.25	0.00	0.00	0.00	-0.103027	0.161133	1.004883	-4.480000	4.340000	1.330000	730.00	-0.269663	-0.108464		
1.32	0.50	0.00	0.75	1.75	0.00	0.00	0.00	0.00	0.00	0.00	0.00	0.00	0.00	0.00	0.00	0.00	0.726074	0.550293	1.080078	-19.250000	12.670000	-36.189999	30.00	0.000000	0.000000	9.00	12.75	13.50	19.50	6.00	10.75	0.00	1.75	0.00	0.00	0.00	0.25	0.25	0.00	0.00	0.00	-0.113281	0.166016	0.996582	-4.900000	4.480000	1.120000	722.00	-0.270411	-0.106527		
1.33	0.25	0.00	0.50	1.75	0.00	0.00	0.00	0.00	0.00	0.00	0.00	0.00	0.00	0.00	0.00	0.00	0.696289	0.462402	1.007812	-8.820000	7.630000	-30.590000	25.00	0.000000	0.000000	8.75	12.50	13.25	19.50	6.00	10.75	0.00	2.00	0.00	0.00	0.00	0.25	0.25	0.00	0.00	0.00	-0.112793	0.162598	0.990234	-5.250000	4.060000	1.050000	718.00	-0.268314	-0.109139		
1.34	0.50	0.00	0.50	1.25	0.00	0.00	0.00	0.00	0.00	0.00	0.00	0.00	0.00	0.00	0.00	0.00	0.655273	0.407227	0.972656	-3.360000	3.920000	-21.629999	22.00	0.000000	0.000000	8.75	12.50	13.00	19.00	5.75	10.50	0.00	2.00	0.00	0.00	0.00	0.50	0.25	0.00	0.00	0.00	-0.116211	0.153809	0.991699	-5.110000	3.710000	0.700000	708.00	-0.267475	-0.109698		
1.35	0.75	0.00	0.50	1.25	0.00	0.00	0.00	0.00	0.00	0.00	0.00	0.00	0.00	0.00	0.00	0.00	0.585938	0.268066	0.979980	9.940000	-2.870000	-0.420000	25.00	0.000000	0.000000	8.75	12.25	12.75	18.75	6.25	10.25	0.00	2.00	0.00	0.00	0.00	0.50	0.25	0.00	0.00	0.00	-0.119141	0.154785	1.000000	-4.690000	2.730000	0.140000	704.00	-0.266357	-0.108043		
1.36	0.25	0.00	0.50	1.25	0.00	0.00	0.00	0.00	0.00	0.00	0.00	0.00	0.00	0.00	0.00	0.00	0.574707	0.225586	1.070312	16.309999	-8.820000	10.360000	20.00	0.000000	0.000000	8.75	11.75	12.75	18.75	6.50	10.25	0.00	2.00	0.00	0.00	0.00	0.25	0.25	0.00	0.00	0.00	-0.113770	0.153320	0.984375	-4.830000	2.590000	-0.210000	699.00	-0.266587	-0.106438		
1.37	0.25	0.50	0.50	1.25	0.00	0.00	0.00	0.00	0.00	0.00	0.00	0.00	0.00	0.00	0.00	0.00	0.537598	0.157715	1.108398	21.000000	-18.340000	21.420000	24.00	0.000000	0.000000	8.75	11.75	12.75	18.75	6.25	10.25	0.00	2.00	0.00	0.00	0.00	0.50	0.25	0.00	0.00	0.00	-0.116211	0.158691	0.982910	-5.320000	3.010000	-0.280000	699.00	-0.265453	-0.107693		
1.38	0.50	0.25	0.50	0.75	0.00	0.00	0.00	0.00	0.00	0.00	0.00	0.00	0.00	0.00	0.00	0.00	0.473633	0.088867	1.080566	23.799999	-28.420000	31.710001	19.00	0.000000	0.000000	8.50	11.50	12.50	18.50	6.00	10.25	0.00	2.00	0.00	0.00	0.00	0.50	0.25	0.00	0.00	0.00	-0.119629	0.161133	0.982910	-6.370000	3.780000	-0.420000	687.00	-0.264946	-0.109181		
1.39	0.25	0.00	0.25	1.00	0.00	0.00	0.00	0.00	0.00	0.00	0.00	0.00	0.00	0.00	0.00	0.00	0.395020	0.024414	1.035156	24.990000	-36.049999	40.180000	15.00	0.000000	0.000000	8.50	11.50	12.50	18.50	6.00	10.25	0.00	2.00	0.00	0.00	0.00	0.25	0.50	0.00	0.00	0.00	-0.116699	0.153809	0.974121	-7.490000	4.690000	-0.420000	687.00	-0.265351	-0.109550		
1.40	0.00	0.00	0.25	1.25	0.00	0.00	0.00	0.00	0.00	0.00	0.00	0.00	0.00	0.00	0.00	0.00	0.333496	-0.027344	1.024902	25.129999	-40.950001	46.900002	15.00	0.000000	0.000000	8.50	11.50	12.75	18.00	6.00	10.00	0.25	2.00	0.00	0.00	0.00	0.25	0.50	0.00	0.00	0.00	-0.129883	0.156738	0.988770	-6.860000	4.340000	-0.490000	685.00	-0.263842	-0.105582		
1.41	0.25	0.00	0.25	0.50	0.00	0.00	0.00	0.00	0.00	0.00	0.00	0.00	0.00	0.00	0.00	0.00	0.278809	-0.034180	1.047363	23.309999	-45.150002	52.709999	10.00	0.000000	0.000000	8.50	10.75	12.75	18.00	6.25	10.00	0.25	2.00	0.00	0.00	0.00	0.25	0.50	0.00	0.00	0.00	-0.129883	0.156738	0.988770	-6.860000	4.340000	-0.490000	682.00	-0.261916	-0.104406		
1.42	0.50	0.00	0.00	0.00	0.00	0.00	0.00	0.00	0.00	0.00	0.00	0.00	0.00	0.00	0.00	0.00	0.220703	-0.051758	1.029297	21.139999	-49.770000	59.290001	5.00	0.000000	0.000000	8.50	10.75	12.25	17.75	6.25	10.00	0.00	2.00	0.00	0.00	0.00	0.25	0.50	0.00	0.00	0.00	-0.114258	0.160156	0.975586	-7.350000	5.250000	-0.350000	671.00	-0.263572	-0.107234		
1.43	0.00	0.50	0.00	0.25	0.00	0.00	0.00	0.00	0.00	0.00	0.00	0.00	0.00	0.00	0.00	0.00	0.131348	-0.060547	0.988770	18.690001	-53.480000	66.779999	7.00	0.000000	0.000000	8.50	10.75	12.50	18.00	6.00	10.00	0.00	2.50	0.00	0.00	0.00	0.50	0.50	0.00	0.00	0.00	-0.123047	0.152344	0.978027	-8.470000	6.720000	-0.490000	682.00	-0.259944	-0.111116		
1.44	0.00	0.00	0.00	0.50	0.00	0.00	0.00	0.00	0.00	0.00	0.00	0.00	0.00	0.00	0.00	0.00	0.041992	-0.064941	0.936035	16.450001	-54.950001	74.269997	5.00	0.000000	0.000000	8.50	10.75	12.50	18.00	6.25	10.25	0.00	2.50	0.00	0.25	0.00	0.50	0.50	0.00	0.00	0.00	-0.120117	0.151855	0.959473	-11.830000	10.080000	-0.420000	690.00	-0.257341	-0.110468		
1.45	0.00	0.25	0.25	0.50	0.00	0.00	0.00	0.00	0.00	0.00	0.00	0.00	0.00	0.00	0.00	0.00	-0.060059	-0.073730	0.916016	14.770000	-54.250000	81.129997	10.00	0.000000	0.000000	8.50	10.50	12.25	17.75	6.25	10.00	0.00	2.75	0.00	0.00	0.00	0.50	0.50	0.00	0.00	0.00	-0.120117	0.151855	0.959473	-11.830000	10.080000	-0.420000	681.00	-0.257578	-0.112074		
1.46	0.00	0.00	0.25	0.50	0.00	0.00	0.00	0.00	0.00	0.00	0.00	0.00	0.00	0.00	0.00	0.00	-0.172852	-0.096680	0.925781	13.230000	-53.270000	86.449997	8.00	0.000000	0.000000	8.25	10.50	12.25	17.50	6.25	10.25	0.25	3.00	0.25	0.00	0.00	0.50	0.50	0.00	0.00	0.00	-0.118164	0.148926	0.971680	-14.840000	12.740000	-0.700000	689.00	-0.251407	-0.110942		
1.47	0.00	0.00	0.00	0.00	0.00	0.00	0.00	0.00	0.00	0.00	0.00	0.00	0.00	0.00	0.00	0.00	-0.281738	-0.119629	0.910645	11.480000	-52.500000	89.250000	0.00	0.000000	0.000000	8.25	10.00	12.25	17.25	6.50	10.25	0.25	3.00	0.25	0.25	0.00	0.50	0.50	0.00	0.00	0.00	-0.097656	0.131348	0.935547	-19.740000	15.260000	-1.120000	687.00	-0.248099	-0.108953		
1.48	0.00	0.00	0.00	0.25	0.00	0.00	0.00	0.00	0.00	0.00	0.00	0.00	0.00	0.00	0.00	0.00	-0.418457	-0.142578	0.891113	9.450000	-51.240002	88.830002	3.00	0.000000	0.000000	8.25	9.75	12.25	17.00	6.50	10.00	0.25	3.50	0.50	0.50	0.00	0.50	0.75	0.00	0.00	0.00	-0.123047	0.135742	1.022461	-16.870001	10.360000	-0.980000	694.00	-0.240381	-0.109374		
1.49	0.00	0.00	0.00	0.25	0.00	0.00	0.00	0.00	0.00	0.00	0.00	0.00	0.00	0.00	0.00	0.00	-0.560059	-0.176270	0.879883	6.930000	-49.070000	84.349998	3.00	0.000000	0.000000	8.00	9.50	11.75	16.75	6.50	10.00	0.25	3.75	0.50	0.50	0.00	0.75	0.75	0.00	0.00	0.00	-0.155762	0.119629	1.031738	-7.140000	-2.800000	-1.960000	688.00	-0.236194	-0.113084		
1.50	0.00	0.00	0.00	0.00	0.00	0.00	0.00	0.00	0.00	0.00	0.00	0.00	0.00	0.00	0.00	0.00	-0.859863	-0.270020	0.804688	0.490000	-40.320000	61.810001	0.00	0.000000	0.000000	7.50	9.00	11.50	16.25	6.50	10.00	0.25	4.00	0.50	0.50	0.00	0.75	1.25	0.00	0.00	0.00	-0.117676	0.116699	0.977539	-0.630000	-6.440000	-2.870000	679.00	-0.229892	-0.117711		
1.51	0.00	0.00	0.00	0.00	0.00	0.00	0.00	0.00	0.00	0.00	0.00	0.00	0.00	0.00	0.00	0.00	-0.985352	-0.258789	0.773438	-6.160000	-34.230000	44.099998	0.00	0.000000	0.000000	7.50	8.50	11.00	15.25	6.50	10.00	0.50	4.25	0.75	0.50	0.25	0.75	1.75	0.00	0.25	0.25	-0.127441	0.156738	0.981445	1.820000	-2.800000	-3.710000	680.00	-0.215475	-0.117457		
1.52	0.25	0.25	0.00	0.50	0.00	0.00	0.00	0.00	0.00	0.00	0.00	0.00	0.00	0.00	0.00	0.00	-1.059082	-0.258789	0.773438	-6.160000	-34.230000	44.099998	9.00	0.000000	0.000000	7.50	8.00	10.50	14.75	6.50	9.50	0.50	4.25	1.00	0.75	0.50	1.25	2.25	0.00	0.50	0.25	-0.145020	0.132324	1.015625	-0.490000	3.780000	-5.250000	679.00	-0.201066	-0.117571		
1.53	0.00	0.00	0.25	0.25	0.00	0.00	0.00	0.00	0.00	0.00	0.00	0.00	0.00	0.00	0.00	0.00	-1.110840	-0.104980	0.685547	-19.110001	-21.000000	8.330000	5.00	0.000000	0.000000	7.25	7.25	10.25	14.00	6.25	9.25	0.50	4.75	1.25	1.25	0.75	1.50	2.75	0.25	0.50	0.50	-0.142578	0.143555	1.034180	-2.660000	10.640000	-6.650000	682.00	-0.182726	-0.119548		
1.54	0.00	0.25	0.00	0.50	0.00	0.00	0.00	0.00	0.00	0.00	0.00	0.00	0.00	0.00	0.00	0.00	-1.100098	-0.026367	0.610840	-22.120001	-13.510000	-5.040000	7.00	0.000000	0.000000	7.00	6.25	9.50	13.00	6.00	9.00	0.50	4.25	2.25	1.75	1.25	2.00	3.25	0.50	0.50	1.00	-0.146973	0.133789	1.062012	-5.040000	17.710001	-8.330000	677.00	-0.156406	-0.112724		
1.55	0.00	0.00	0.25	0.50	0.00	0.00	0.00	0.00	0.00	0.00	0.00	0.00	0.00	0.00	0.00	0.00	-0.992676	0.056152	0.516602	-25.059999	-5.320000	-13.370000	8.00	0.000000	0.000000	6.25	5.75	9.25	10.75	5.75	8.00	0.50	4.25	3.00	2.50	1.75	2.25	3.75	0.50	0.50	1.50	-0.159668	0.161133	1.087891	-8.330000	24.639999	-9.940000	658.00	-0.129328	-0.106320		
1.56	0.00	0.00	0.00	0.25	0.00	0.00	0.00	0.00	0.00	0.00	0.00	0.00	0.00	0.00	0.00	0.00	-0.832520	0.163086	0.457520	-27.719999	1.610000	-14.490000	3.00	0.000000	0.000000	5.00	4.75	8.00	9.25	5.50	6.75	0.50	4.00	4.50	3.25	2.00	2.50	3.50	0.50	0.75	2.00	-0.189941	0.145508	0.871094	-10.710000	30.590000	-11.690000	624.00	-0.092787	-0.093966		
1.57	0.00	0.00	0.00	0.25	0.00	0.00	0.00	0.00	0.00	0.00	0.00	0.00	0.00	0.00	0.00	0.00	-0.634277	0.260742	0.425293	-26.530001	5.390000	-7.140000	3.00	0.000000	0.000000	4.25	4.00	6.25	7.25	4.50	5.50	0.50	3.50	5.50	4.00	2.50	2.50	3.25	1.25	1.50	2.50	-0.152832	0.162598	1.111328	-15.890000	35.630001	-13.790000	581.00	-0.046248	-0.079507		
1.58	0.00	0.00	0.00	0.50	0.00	0.00	0.00	0.00	0.00	0.00	0.00	0.00	0.00	0.00	0.00	0.00	-0.371094	0.357910	0.392090	-21.420000	4.480000	7.630000	5.00	0.000000	0.000000	3.50	3.50	5.00	6.00	3.50	4.25	0.50	2.75	7.25	4.75	2.75	2.50	2.75	2.25	2.25	2.75	-0.117188	0.236328	1.112305	-24.570000	43.049999	-17.780001	554.00	0.002907	-0.053308		
1.59	0.00	0.00	0.25	0.75	0.00	0.00	0.00	0.00	0.00	0.00	0.00	0.00	0.00	0.00	0.00	0.00	-5.087402	1.875488	-0.157715	-24.500000	-7.770000	17.710001	10.00	0.000000	0.000000	3.25	2.50	4.25	4.75	2.00	2.75	0.25	2.00	9.50	5.50	3.00	2.25	2.25	4.00	2.50	2.75	-0.143066	0.257812	1.222656	-36.189999	60.689999	-28.420000	525.00	0.057740	-0.014301		11.00
1.60	1.00	0.50	0.75	4.00	0.00	0.00	0.00	0.00	0.00	0.00	0.00	0.00	0.00	0.00	0.00	0.00	-0.910156	0.789062	-1.530762	42.209999	67.760002	-10.080000	61.00	-0.311500	-0.130328	2.50	1.50	2.50	3.50	1.25	1.75	0.00	1.25	11.00	6.00	2.75	2.00	1.75	5.00	2.50	2.75	-0.291992	0.253418	1.359375	-39.689999	96.529999	-39.060001	470.00	0.116274	0.019767		
1.61	4.00	4.75	4.00	7.75	0.00	0.00	0.00	0.00	0.00	0.00	0.00	0.00	0.00	0.00	0.00	0.00	-1.581055	0.677246	2.298340	69.580002	196.139999	-12.110000	196.00	-0.331583	-0.083280	1.50	1.25	2.00	2.75	0.75	1.00	0.00	0.50	12.00	6.00	2.50	1.75	1.50	5.50	2.75	2.50	-0.246582	0.214355	1.579102	-47.529999	158.059998	-49.209999	433.00	0.158397	0.050229		
1.62	5.50	8.00	5.75	11.25	0.25	1.25	0.00	0.00	0.00	0.00	0.00	0.00	0.00	0.00	0.00	0.00	-1.596191	0.427734	4.621094	24.639999	204.050003	10.570000	306.00	-0.324628	-0.094471	1.50	1.00	1.50	2.00	0.25	0.75	0.00	0.25	12.00	5.75	2.50	1.50	1.00	6.75	2.75	2.00	-0.267578	0.224121	1.509766	-64.750000	214.339996	-55.020000	405.00	0.185881	0.073928		
1.63	6.75	9.00	8.25	12.75	0.75	2.75	0.00	0.50	0.00	0.00	0.00	0.00	0.00	0.00	0.00	0.00	-0.367676	-0.217773	1.729980	8.540000	52.150002	14.210000	394.00	-0.309114	-0.092990	0.25	0.25	0.50	1.00	0.00	0.25	0.00	0.00	11.75	5.50	1.75	1.25	0.50	6.75	2.25	1.75	-0.307129	0.268066	1.707031	-83.860001	269.290009	-63.490002	331.00	0.250456	0.111293		
1.64	7.50	10.25	9.50	13.75	1.25	4.00	0.00	0.50	0.00	0.00	0.00	0.00	0.00	0.00	0.00	0.00	0.430176	0.011719	0.090332	-6.440000	-3.220000	0.910000	452.00	-0.305024	-0.092538	0.00	0.00	0.00	0.50	0.00	0.25	0.00	0.00	11.50	5.50	1.50	0.75	0.00	6.75	1.75	1.25	-0.321777	0.304688	1.815918	-112.279999	320.880005	-75.110001	295.00	0.276988	0.140762		
1.65	8.00	10.25	11.00	14.75	2.00	4.50	0.00	0.50	0.00	0.00	0.00	0.00	0.00	0.00	0.00	0.00	-0.138672	0.394043	1.158691	-24.850000	42.420002	-12.530000	494.00	-0.300107	-0.087130	0.00	0.00	0.00	0.00	0.00	0.00	0.00	0.00	11.00	5.25	1.00	0.50	0.00	5.75	1.25	0.75	-0.337402	0.343262	1.804688	-135.660004	372.610016	-88.199997	257.00	0.287206	0.165892		
1.66	8.00	11.25	12.00	14.75	3.00	4.75	0.25	0.50	0.00	0.00	0.00	0.00	0.00	0.00	0.00	0.00	-0.336426	0.165527	1.396484	-16.520000	21.280001	-4.550000	529.00	-0.294769	-0.080861	0.00	0.25	0.00	0.00	0.00	0.00	0.00	0.00	9.75	4.75	0.75	0.25	0.00	5.25	0.75	0.25	-0.480469	0.527832	2.125000	-147.770004	415.660004	-105.000000	223.00	0.279545	0.176220		
1.67	8.00	11.00	12.75	15.00	4.00	5.00	0.25	0.75	0.25	0.25	0.00	0.00	0.25	0.25	0.00	0.00	-0.195801	0.106934	1.044434	-9.450000	-2.590000	1.330000	562.00	-0.279174	-0.077048	0.00	0.75	0.00	0.00	0.00	0.00	0.00	0.00	8.50	4.50	0.75	0.25	0.00	4.75	0.50	0.00	-0.510254	0.808105	2.501465	-142.380005	448.279999	-127.400002	202.00	0.262650	0.169242		
1.68	8.00	11.00	13.25	15.50	4.50	6.50	0.25	1.00	0.25	0.50	0.00	0.00	0.25	0.00	0.00	0.00	-0.229492	0.141602	1.042480	-4.410000	-6.860000	3.920000	596.00	-0.273288	-0.082713	0.00	0.25	0.00	0.00	0.00	0.00	0.00	0.00	6.75	4.00	0.75	0.25	0.00	3.50	0.50	0.25	-0.804688	0.971680	3.344727	-119.000000	449.190002	-169.680008	164.00	0.273324	0.163288		
1.69	8.75	11.75	13.50	16.00	4.50	6.50	0.25	1.75	0.50	0.50	0.00	0.25	0.50	0.25	0.00	0.25	-0.229492	0.141602	1.042480	-4.410000	-6.860000	3.920000	638.00	-0.262939	-0.086858	0.00	0.25	0.00	0.00	0.00	0.00	0.00	0.00	5.50	3.25	0.50	0.25	0.00	2.00	0.25	0.25	-0.804688	0.971680	3.344727	-119.000000	449.190002	-169.680008	125.00	0.262476	0.164381		
1.70	9.00	12.75	13.50	16.25	4.50	7.50	0.25	1.75	0.50	0.50	0.00	0.25	0.75	0.25	0.00	0.00	-0.152832	0.117676	1.006836	2.310000	-6.230000	6.510000	662.00	-0.263699	-0.091187	0.00	0.00	0.00	0.00	0.00	0.00	0.00	0.00	4.00	2.00	0.25	0.00	0.00	0.75	0.00	0.00	-0.690430	0.953613	2.611328	-114.730003	408.799988	-188.440002	75.00	0.263551	0.201102		
1.71	9.25	13.25	13.50	16.25	4.50	8.25	0.25	2.00	0.50	0.75	0.25	0.50	0.75	0.25	0.00	0.00	-0.146484	0.144043	1.014648	5.040000	-4.620000	6.650000	687.00	-0.257520	-0.094720	0.00	0.00	0.00	0.00	0.00	0.00	0.00	0.00	2.75	1.25	0.00	0.00	0.00	0.25	0.00	0.00	0.420898	0.914062	1.881348	-126.559998	351.190002	-204.680008	47.00	0.000000	0.000000		
1.72	9.00	13.25	13.50	16.50	4.50	8.25	0.25	2.25	0.50	0.50	0.25	0.50	0.75	0.25	0.25	0.25	-0.126465	0.133301	0.992676	6.440000	-2.380000	6.440000	692.00	-0.254174	-0.098278	0.00	0.00	0.25	0.25	0.00	0.00	0.00	0.00	1.00	0.25	0.00	0.00	0.00	0.00	0.00	0.00	2.952637	2.888184	2.555176	-75.180000	163.660004	-163.589996	19.00	0.000000	0.000000		
1.73	9.00	13.50	13.25	16.25	4.50	8.50	0.25	2.50	0.25	0.50	0.00	0.50	0.75	0.25	0.25	0.25	-0.133301	0.141113	1.003906	7.280000	-0.280000	5.460000	689.00	-0.256803	-0.102387	0.00	0.00	0.00	0.00	0.00	0.00	0.00	0.00	0.50	0.00	0.00	0.00	0.00	0.00	0.00	0.00	2.952637	2.888184	2.555176	-75.180000	163.660004	-163.589996	6.00	0.000000	0.000000		
1.74	8.75	13.50	12.75	16.00	4.75	8.50	0.25	2.75	0.25	0.50	0.25	0.50	0.75	0.00	0.00	0.00	-0.115234	0.131836	0.981445	9.100000	1.610000	4.060000	682.00	-0.258089	-0.105510	0.00	0.00	0.00	0.00	0.00	0.00	0.00	0.00	0.50	0.25	0.00	0.00	0.00	0.00	0.00	0.00	0.159668	2.128906	3.010254	77.279999	21.559999	-46.060001	8.00	0.000000	0.000000		
1.75	8.75	13.00	12.50	15.50	4.50	8.50	0.25	3.25	0.50	0.50	0.50	0.50	1.00	0.00	0.00	0.25	-0.122559	0.135254	0.988281	10.990000	3.290000	2.940000	683.00	-0.248529	-0.108306	0.00	0.25	0.00	0.25	0.00	0.00	0.00	0.00	0.50	0.25	0.00	0.00	0.00	0.00	0.00	0.00	0.553223	0.389648	-0.045410	88.129997	-53.130001	73.500000	13.00	0.000000	0.000000		
1.76	8.50	12.50	11.75	15.25	4.50	8.25	0.25	3.50	0.25	0.50	0.50	0.50	1.00	0.00	0.00	0.50	-0.137207	0.145020	1.007324	12.040000	4.760000	2.030000	666.00	-0.246828	-0.113515	0.00	0.00	0.00	0.00	0.00	0.00	0.00	0.00	0.25	0.00	0.00	0.00	0.00	0.00	0.00	0.00	0.525391	0.916992	0.717773	85.050003	-21.280001	90.510002	3.00	0.000000	0.000000		
1.77	8.00	11.75	11.25	14.75	4.25	8.00	0.25	3.75	0.25	0.50	0.25	0.50	1.00	0.00	0.00	0.25	-0.137695	0.145508	0.994141	12.320000	6.370000	1.400000	640.00	-0.246051	-0.116567	0.00	0.00	0.00	0.00	0.00	0.00	0.00	0.00	0.00	0.00	0.00	0.00	0.00	0.00	0.00	0.00	1.045898	0.835938	0.820312	117.389999	-21.980000	108.989998	0.00	0.000000	0.000000		
1.78	7.50	11.25	11.00	14.25	3.75	7.75	0.25	3.75	0.25	0.50	0.25	0.75	1.25	0.00	0.00	0.25	-0.134766	0.150879	0.995117	11.410000	7.840000	0.630000	620.00	-0.241522	-0.120542	0.00	0.00	0.00	0.00	0.00	0.00	0.00	0.00	0.00	0.00	0.00	0.00	0.00	0.00	0.00	0.00	1.049805	0.614746	1.073242	168.279999	-57.119999	129.710007	0.00	0.000000	0.000000		
1.79	7.50	11.00	10.25	13.75	3.25	7.50	0.25	4.00	0.00	0.50	0.25	0.50	1.50	0.00	0.00	0.25	-0.141113	0.155762	0.980469	9.870000	8.820000	-0.210000	598.00	-0.243169	-0.127075	0.00	0.00	0.00	0.00	0.00	0.00	0.00	0.00	0.00	0.25	0.00	0.00	0.00	0.00	0.00	0.00	0.855469	0.285645	1.086426	196.279999	-93.940002	149.100006	2.00	0.000000	0.000000		
1.80	7.00	9.75	9.50	13.25	3.00	7.50	0.25	3.75	0.00	0.50	0.25	0.50	1.50	0.00	0.00	0.50	-0.125000	0.154785	0.946777	8.540000	8.820000	-0.630000	565.00	-0.238510	-0.130008	0.00	0.00	0.00	0.00	0.00	0.00	0.00	0.00	0.00	0.00	0.00	0.00	0.00	0.00	0.00	0.00	0.754395	0.018555	1.039551	195.580002	-117.320000	163.100006	0.00	0.000000	0.000000		
1.81	6.50	9.00	8.75	12.75	2.75	7.25	0.25	4.00	0.00	0.50	0.25	0.50	1.50	0.00	0.00	0.25	-0.123047	0.166016	0.958496	6.930000	9.030000	-1.330000	539.00	-0.234987	-0.135415	0.00	0.00	0.00	0.00	0.00	0.00	0.00	0.00	0.00	0.00	0.00	0.00	0.00	0.00	0.00	0.00	0.632324	-0.109375	1.139648	182.139999	-134.399994	170.940002	0.00	0.000000	0.000000		
1.82	6.00	9.00	8.25	12.25	2.25	7.00	0.00	4.00	0.00	0.50	0.25	0.50	1.50	0.00	0.00	0.25	-0.131836	0.159668	0.962402	5.740000	9.100000	-2.240000	513.00	-0.236235	-0.142861	0.00	0.00	0.00	0.00	0.00	0.00	0.00	0.00	0.00	0.00	0.00	0.00	0.00	0.00	0.00	0.00	0.563965	-0.223145	1.215820	168.000000	-154.350006	174.440002	0.00	0.000000	0.000000		
1.83	6.00	8.75	7.25	11.50	2.00	6.50	0.00	4.00	0.00	0.50	0.50	0.50	2.00	0.00	0.00	0.50	-0.129883	0.150391	0.948242	6.790000	8.400000	-3.360000	493.00	-0.228451	-0.148926	0.00	0.00	0.00	0.00	0.00	0.00	0.00	0.00	0.00	0.00	0.00	0.00	0.00	0.00	0.00	0.00	0.522461	-0.287598	1.223145	154.490005	-178.500000	173.740005	0.00	0.000000	0.000000		
1.84	5.50	8.25	6.25	10.75	2.00	6.50	0.00	4.25	0.00	0.50	0.50	0.75	2.50	0.00	0.00	0.50	-0.129883	0.150391	0.948242	6.790000	8.400000	-3.360000	476.00	-0.216195	-0.160377	0.00	0.00	0.00	0.00	0.00	0.00	0.00	0.00	0.00	0.00	0.00	0.00	0.00	0.00	0.00	0.00	0.425293	-0.352539	1.205566	143.009995	-201.110001	170.100006	0.00	0.000000	0.000000		
1.85	5.00	7.25	5.75	10.50	1.75	6.50	0.00	4.25	0.25	0.50	0.50	1.25	2.75	0.00	0.25	0.50	-0.130371	0.158691	0.949219	7.420000	9.660000	-4.970000	465.00	-0.197888	-0.166089	0.00	0.00	0.00	0.00	0.00	0.00	0.00	0.00	0.00	0.00	0.00	0.00	0.00	0.00	0.00	0.00	0.315430	-0.449707	1.175293	129.430008	-217.910004	165.619995	0.00	0.000000	0.000000		
1.86	4.75	6.50	5.25	9.25	1.75	6.00	0.00	4.50	0.50	0.75	0.50	1.50	3.25	0.00	0.25	0.50	-0.130371	0.158691	0.949219	7.420000	9.660000	-4.970000	449.00	-0.178733	-0.168527	0.00	0.00	0.00	0.00	0.00	0.00	0.00	0.00	0.00	0.00	0.00	0.00	0.00	0.00	0.00	0.00	0.252930	-0.613281	1.176758	102.269997	-227.779999	157.570007	0.00	0.000000	0.000000		
1.87	4.50	5.75	4.75	8.75	1.50	5.75	0.00	4.75	0.50	1.00	0.75	2.00	3.75	0.00	0.25	0.50	-0.140625	0.150879	0.947266	5.740000	14.140000	-7.140000	442.00	-0.159238	-0.177343	0.00	0.00	0.00	0.00	0.00	0.00	0.00	0.00	0.00	0.00	0.00	0.00	0.00	0.00	0.00	0.00	0.251465	-0.668945	1.161133	66.080002	-235.690002	142.449997	0.00	0.000000	0.000000		
1.88	4.25	5.25	4.25	8.75	1.25	5.50	0.00	4.75	0.75	1.25	1.00	2.25	5.00	0.00	0.50	1.00	-0.136230	0.154297	0.979980	5.530000	16.799999	-7.630000	451.00	-0.132513	-0.185338	0.00	0.00	0.00	0.00	0.00	0.00	0.00	0.00	0.00	0.00	0.00	0.00	0.00	0.00	0.00	0.00	0.195801	-0.579590	1.235352	37.380001	-248.080002	119.629997	0.00	0.000000	0.000000		
1.89	4.00	4.75	4.00	7.75	1.50	5.00	0.00	4.75	0.75	2.00	2.00	3.00	5.50	0.50	0.50	1.75	-0.148926	0.156250	0.985840	6.440000	18.969999	-7.560000	465.00	-0.094669	-0.182202	0.00	0.25	0.00	0.00	0.00	0.00	0.00	0.00	0.00	0.00	0.00	0.00	0.00	0.00	0.00	0.00	0.127930	-0.466309	1.299805	22.540001	-263.760010	94.430000	2.00	0.000000	0.000000		
1.90	3.75	4.25	3.75	6.75	1.25	4.75	0.00	5.00	1.00	2.50	2.75	3.50	5.75	0.75	0.75	2.75	-0.169922	0.164062	0.991699	6.930000	20.719999	-7.210000	475.00	-0.060216	-0.182066	0.00	0.00	0.00	0.00	0.00	0.00	0.00	0.00	0.00	0.00	0.00	0.00	0.00	0.00	0.00	0.00	0.027344	-0.365723	1.318848	17.219999	-279.299988	68.599998	0.00	0.000000	0.000000		
1.91	3.50	3.75	3.50	6.00	1.25	4.75	0.00	5.00	1.25	2.75	3.50	4.00	6.50	1.25	1.00	3.50	-0.183105	0.150391	1.105957	8.190000	21.840000	-7.070000	492.00	-0.028747	-0.181588	0.00	0.00	0.00	0.00	0.00	0.00	0.00	0.00	0.00	0.00	0.00	0.00	0.00	0.00	0.00	0.00	-0.152344	-0.300293	1.361328	14.350000	-292.040009	42.840000	0.00	0.000000	0.000000		
1.92	3.50	3.50	3.00	4.75	1.00	4.50	0.00	5.00	1.25	3.25	4.00	4.75	7.75	2.25	1.00	4.00	-0.175293	0.173340	1.008789	8.820000	23.030001	-7.070000	504.00	0.003828	-0.183396	0.00	0.00	0.00	0.00	0.00	0.00	0.00	0.00	0.00	0.00	0.00	0.00	0.00	0.00	0.00	0.00	-0.352539	-0.153320	1.410645	10.430000	-302.260010	19.320000	0.00	0.000000	0.000000		
1.93	3.50	3.25	2.50	4.00	0.75	4.25	0.00	5.00	2.25	3.50	4.50	5.25	8.00	2.50	1.50	4.75	-0.186035	0.172363	0.997559	8.470000	25.059999	-7.000000	521.00	0.033014	-0.174770	0.00	0.00	0.00	0.00	0.00	0.00	0.00	0.00	0.00	0.00	0.00	0.00	0.00	0.00	0.00	0.00	-0.557129	0.021973	1.458984	5.180000	-310.730011	2.450000	0.00	0.000000	0.000000		
1.94	2.00	2.50	2.00	3.75	0.75	4.00	0.00	5.00	2.75	4.00	5.25	5.75	8.75	3.25	1.75	5.50	-0.175781	0.172852	1.018066	7.770000	28.280001	-7.770000	531.00	0.073564	-0.177298	0.00	0.00	0.00	0.00	0.00	0.00	0.00	0.00	0.00	0.00	0.00	0.00	0.00	0.00	0.00	0.00	-0.827637	0.209961	1.506836	1.260000	-316.049988	-5.670000	0.00	0.000000	0.000000		
1.95	1.25	1.75	1.25	3.25	0.50	3.50	0.00	4.75	3.75	4.25	5.75	7.00	9.00	3.75	2.50	6.75	-0.189941	0.183594	1.024414	7.420000	31.780001	-8.680000	545.00	0.116621	-0.173209	0.00	0.00	0.00	0.00	0.00	0.00	0.00	0.00	0.00	0.00	0.00	0.00	0.00	0.00	0.00	0.00	-1.165039	0.394531	1.547363	0.840000	-316.540009	-6.300000	0.00	0.000000	0.000000		
1.96	1.25	1.00	0.75	3.00	0.25	2.25	0.00	4.50	4.00	4.25	6.50	8.25	9.00	4.25	3.25	8.25	-0.178711	0.189453	1.065430	7.140000	37.170002	-10.570000	554.00	0.149347	-0.170652	0.00	0.00	0.00	0.00	0.00	0.00	0.00	0.00	0.00	0.00	0.00	0.00	0.00	0.00	0.00	0.00	-2.077637	0.599609	1.436523	11.830000	-296.239990	5.320000	0.00	0.000000	0.000000		
1.97	1.00	0.50	0.50	2.00	0.00	1.50	0.00	4.25	4.25	5.00	7.25	8.25	9.00	4.75	3.75	9.00	-0.180176	0.199219	1.103516	12.390000	48.299999	-13.930000	551.00	0.180612	-0.161936	0.00	0.00	0.00	0.00	0.00	0.00	0.00	0.00	0.00	0.00	0.00	0.00	0.00	0.00	0.00	0.00	-2.077637	0.599609	1.436523	11.830000	-296.239990	5.320000	0.00	0.000000	0.000000		
1.98	0.50	0.25	0.75	1.50	0.00	1.25	0.00	4.00	4.50	5.25	7.75	8.50	9.00	5.50	4.25	9.25	-0.204102	0.179199	1.107422	18.270000	66.849998	-15.750000	560.00	0.198574	-0.153569	0.00	0.00	0.00	0.00	0.00	0.00	0.00	0.00	0.00	0.00	0.00	0.00	0.00	0.00	0.00	0.00	-2.533691	0.577637	1.236816	22.190001	-271.670013	14.910000	0.00	0.000000	0.000000		
1.99	0.00	0.00	0.50	1.25	0.00	0.75	0.00	3.75	4.50	5.75	7.75	8.50	8.75	6.25	4.25	9.75	-0.241699	0.194824	1.074219	12.810000	101.010002	-16.309999	551.00	0.218437	-0.148204	0.00	0.00	0.00	0.00	0.00	0.00	0.00	0.00	0.00	0.00	0.00	0.00	0.00	0.00	0.00	0.00	-2.875000	0.502441	1.012695	35.560001	-236.949997	27.090000	0.00	0.000000	0.000000		
2.00	0.00	0.00	0.25	0.75	0.00	0.50	0.00	3.00	4.75	6.00	7.75	8.50	8.25	7.25	4.25	10.25	-0.241699	0.194824	1.074219	12.810000	101.010002	-16.309999	542.00	0.235656	-0.133847	0.00	0.00	0.00	0.00	0.00	0.00	0.00	0.00	0.00	0.00	0.00	0.00	0.00	0.00	0.00	0.00	-3.326172	0.090820	0.630859	70.000000	-149.240005	51.170002	0.00	0.000000	0.000000		
2.01	0.00	0.00	0.00	0.00	0.00	0.25	0.00	2.00	4.75	6.25	7.75	8.50	8.00	7.75	4.75	10.50	-0.233398	0.152832	1.131348	6.230000	120.540001	-17.639999	526.00	0.257428	-0.121651	0.00	0.00	0.00	0.00	0.00	0.00	0.00	0.00	0.00	0.00	0.00	0.00	0.00	0.00	0.00	0.00	-3.326172	0.090820	0.630859	70.000000	-149.240005	51.170002	0.00	0.000000	0.000000		
2.02	0.00	0.00	0.00	0.00	0.00	0.00	0.00	1.50	4.75	6.50	7.50	8.50	7.75	8.75	4.75	11.00	-0.251465	0.167969	1.168945	-0.630000	144.130005	-17.570000	525.00	0.266142	-0.111705	0.00	0.00	0.00	0.00	0.00	0.00	0.00	0.00	0.00	0.00	0.00	0.00	0.00	0.00	0.00	0.00	-3.369141	-0.582031	0.487305	105.000000	-100.730003	54.599998	0.00	0.000000	0.000000		
2.03	0.00	0.00	0.00	0.00	0.00	0.00	0.00	1.25	4.75	6.75	7.50	8.50	6.75	9.25	4.75	10.75	-0.315918	0.224609	1.216797	-6.370000	199.990005	-22.120001	518.00	0.270256	-0.100969	0.00	0.00	0.00	0.00	0.00	0.00	0.00	0.00	0.00	0.00	0.00	0.00	0.00	0.00	0.00	0.00	-3.201660	-0.862793	0.458008	97.790001	-17.290001	36.959999	0.00	0.000000	0.000000		
2.04	0.00	0.00	0.00	0.00	0.00	0.00	0.00	0.50	4.50	7.25	7.25	8.25	6.25	9.75	4.75	10.50	-0.348633	0.254395	1.262695	-11.130000	233.449997	-27.230000	503.00	0.278107	-0.089070	0.00	0.00	0.00	0.00	0.00	0.00	0.00	0.00	0.00	0.00	0.00	0.00	0.00	0.00	0.00	0.00	-3.955078	-2.256348	0.904785	-51.939999	87.430000	13.510000	0.00	0.000000	0.000000		
2.05	0.00	0.00	0.00	0.00	0.00	0.00	0.00	0.50	4.50	7.50	7.00	7.75	5.75	10.25	4.75	10.00	-0.370605	0.309570	1.355469	-19.180000	268.170013	-34.580002	496.00	0.280398	-0.079974	0.00	0.00	0.00	0.00	0.00	0.00	0.00	0.00	0.00	0.00	0.00	0.00	0.00	0.00	0.00	0.00	-3.361328	-1.668457	-0.913086	-200.899994	127.330002	-23.170000	0.00	0.000000	0.000000		
2.06	0.00	0.00	0.00	0.00	0.00	0.00	0.00	0.00	4.25	7.50	6.50	7.00	5.50	10.50	4.75	9.25	-0.411621	0.348145	1.378906	-31.219999	298.619995	-44.799999	470.00	0.286959	-0.069385	0.00	0.00	0.00	0.00	0.00	0.00	0.00	0.00	0.00	0.00	0.00	0.00	0.00	0.00	0.00	0.00	-0.570801	-0.226074	1.176270	-293.019989	175.699997	-66.430000	0.00	0.000000	0.000000	21.00	
2.07	0.00	0.00	0.00	0.00	0.00	0.00	0.00	0.00	4.25	7.50	6.00	6.25	5.25	10.25	4.75	8.50	-0.494629	0.329102	1.323730	-41.930000	325.149994	-57.119999	450.00	0.288268	-0.062559	0.75	1.50	0.75	5.00	0.00	0.00	0.00	0.00	0.00	0.00	0.00	0.00	0.00	0.00	0.00	0.00	0.594238	-1.291016	3.340820	-233.240005	212.940002	-54.670002	78.00	-0.317019	-0.153757		
2.08	0.00	0.00	0.00	0.00	0.00	0.00	0.00	0.00	4.00	7.00	5.75	5.50	4.25	9.75	4.25	7.25	-0.520020	0.383789	1.430664	-50.330002	355.179993	-71.680000	410.00	0.289486	-0.052532	7.50	7.75	9.00	13.00	0.00	1.00	0.00	0.25	0.00	0.00	0.00	0.00	0.00	0.00	0.00	0.00	-0.021484	-0.687988	1.196289	-62.930000	168.630005	-1.890000	372.00	-0.320667	-0.076113		
2.09	0.00	0.00	0.00	0.00	0.00	0.00	0.00	0.00	3.75	6.75	5.50	5.25	4.00	9.25	4.25	5.75	-0.670410	0.432129	1.603027	-49.910000	389.690002	-86.099998	387.00	0.288973	-0.049024	11.00	13.00	15.00	21.00	3.25	6.50	0.00	2.25	0.00	0.00	0.00	0.00	0.25	0.00	0.00	0.00	-1.085449	0.347168	4.155273	-121.660004	124.389999	-18.620001	708.00	-0.286482	-0.097992		
2.10	0.00	0.00	0.00	0.00	0.00	0.00	0.00	0.00	3.25	6.50	5.00	4.50	3.50	8.50	3.50	4.75	-0.797363	0.484375	1.888184	-45.849998	417.200012	-100.660004	344.00	0.288231	-0.043847	12.75	14.25	18.75	23.25	5.75	9.50	0.00	3.00	0.00	0.00	0.00	0.25	0.50	0.00	0.00	0.00	-0.428223	-0.187500	1.897461	-85.540001	43.049999	-17.150000	866.00	-0.274361	-0.096225		
2.11	0.00	0.00	0.00	0.00	0.00	0.00	0.00	0.00	2.75	5.75	4.50	4.00	2.75	7.75	3.00	4.25	-1.066895	0.527344	2.526855	-49.840000	428.329987	-112.840004	302.00	0.289703	-0.040710	12.25	13.50	19.00	22.25	6.75	10.00	0.00	3.50	0.00	0.00	0.00	0.25	0.50	0.00	0.00	0.00	-0.067383	0.263184	0.681641	-49.139999	27.370001	-0.210000	869.00	-0.267928	-0.096359		
2.12	0.00	0.00	0.00	0.00	0.00	0.00	0.00	0.00	2.25	5.25	4.00	3.50	2.00	5.75	2.25	3.75	-1.196289	0.628906	2.691406	-27.790001	439.739990	-113.120003	250.00	0.285309	-0.043523	11.25	12.25	18.50	21.00	7.50	10.50	0.25	3.50	0.00	0.00	0.00	0.25	0.50	0.00	0.00	0.00	-0.055664	-0.045898	1.257812	-35.209999	34.230000	11.620000	848.00	-0.260913	-0.095242		
2.13	0.00	0.00	0.00	0.00	0.00	0.00	0.00	0.00	1.75	4.50	3.75	3.00	1.50	5.00	1.50	3.00	-1.000000	0.495605	2.971191	-2.590000	453.670013	-116.059998	209.00	0.283215	-0.041684	10.50	10.50	17.75	20.00	8.50	11.00	0.25	3.75	0.00	0.00	0.00	0.50	0.50	0.00	0.00	0.00	-0.190430	-0.016602	1.135742	-13.790000	-8.470000	4.690000	829.00	-0.251853	-0.096861		
2.14	0.00	0.00	0.00	0.00	0.00	0.00	0.00	0.00	1.25	4.25	3.25	2.50	1.25	4.00	1.00	2.25	-0.770020	0.229004	3.077148	-6.020000	458.570007	-128.380005	173.00	0.278769	-0.042975	9.75	9.75	17.75	19.25	9.00	11.25	0.25	4.00	0.25	0.25	0.25	0.50	0.75	0.00	0.00	0.25	-0.230469	0.182129	1.015137	-1.540000	-22.680000	1.050000	830.00	-0.240357	-0.097197		15.00
2.15	0.00	0.00	0.00	0.00	0.00	0.00	0.00	0.00	0.75	3.50	2.50	2.00	0.75	3.00	0.50	1.75	-0.553223	0.398438	3.156738	-31.360001	468.929993	-133.630005	129.00	0.276395	-0.043806	9.50	9.50	17.50	19.25	9.50	11.50	0.50	4.00	0.50	0.50	0.25	0.75	1.00	0.00	0.00	0.25	-0.227539	0.150879	1.031250	4.060000	-19.530001	6.020000	844.00	-0.231743	-0.095995		
2.16	0.00	0.00	0.00	0.00	0.00	0.00	0.00	0.00	0.25	2.75	1.50	1.50	0.50	0.50	0.50	1.25	-0.198730	0.750000	3.002930	-76.790001	473.690002	-145.250000	77.00	0.257335	-0.090340	9.50	9.25	17.75	19.25	9.75	11.75	0.50	4.25	0.50	0.50	0.50	0.75	1.00	0.00	0.25	0.25	-0.180176	0.092285	1.050293	4.200000	-15.120000	5.530000	857.00	-0.226880	-0.096540		
2.17	0.00	0.00	0.00	0.00	0.00	0.00	0.00	0.00	0.00	1.50	1.00	0.50	0.00	0.00	0.25	0.50	0.311523	0.850098	2.199707	-104.019997	463.610016	-155.050003	34.00	0.000000	0.000000	9.50	9.50	17.25	19.00	10.00	12.00	0.50	4.25	0.50	0.50	0.50	0.75	1.50	0.00	0.25	0.25	-0.149414	0.131836	1.038574	2.730000	-10.290000	4.690000	861.00	-0.224591	-0.099179		
2.18	0.00	0.00	0.00	0.00	0.00	0.00	0.00	0.00	0.00	0.75	0.25	0.00	0.00	0.00	0.25	0.00	1.094238	1.039551	2.323730	-78.889999	448.839996	-152.809998	12.00	0.000000	0.000000	9.50	9.50	16.75	19.00	9.75	11.75	0.50	4.75	0.50	0.50	0.75	0.75	1.75	0.25	0.25	0.25	-0.117676	0.113770	1.014648	3.430000	-5.320000	5.950000	864.00	-0.219541	-0.102870		
2.19	0.00	0.00	0.00	0.00	0.00	0.00	0.00	0.00	0.00	0.50	0.00	0.00	0.00	0.00	0.25	0.00	0.459961	1.646973	4.777344	29.190001	112.629997	-119.629997	7.00	0.000000	0.000000	9.25	9.25	16.00	18.50	9.50	11.75	0.50	5.25	0.50	0.50	0.75	0.75	1.75	0.25	0.50	0.50	-0.104492	0.149414	0.995605	6.300000	-2.730000	6.650000	855.00	-0.213711	-0.107387		
2.20	0.00	0.00	0.00	0.00	0.00	0.00	0.00	0.00	0.00	0.50	0.00	0.00	0.00	0.00	0.00	0.00	0.852051	0.963867	3.007812	44.380001	-80.010002	-48.439999	5.00	0.000000	0.000000	9.25	9.00	15.50	17.75	9.50	11.50	0.50	5.25	0.50	0.50	0.75	1.00	2.25	0.25	0.50	0.50	-0.131348	0.160645	1.022949	6.650000	-1.750000	6.020000	844.00	-0.209397	-0.109106		
2.21	0.00	0.00	0.00	0.00	0.00	0.00	0.00	0.00	0.00	0.00	0.00	0.00	0.00	0.00	0.00	0.00	1.205566	0.228027	1.328125	-11.340000	-182.630005	7.280000	0.00	0.000000	0.000000	9.00	9.00	15.00	17.25	9.25	11.50	0.50	5.25	0.75	0.50	0.75	1.25	2.50	0.00	0.50	0.75	-0.124512	0.153320	1.014648	4.970000	0.280000	4.690000	836.00	-0.205112	-0.111733		
2.22	0.00	0.00	0.00	0.00	0.00	0.00	0.00	0.00	0.00	0.00	0.00	0.00	0.00	0.00	0.00	0.00	0.808105	0.191406	0.887207	-92.330002	-208.529999	27.860001	0.00	0.000000	0.000000	8.75	8.50	14.50	16.75	9.00	11.25	0.50	5.25	0.75	0.50	0.75	1.25	2.25	0.00	0.50	0.75	-0.112305	0.146973	1.007324	4.200000	2.310000	3.920000	812.00	-0.203878	-0.111840		
2.23	0.00	0.00	0.00	0.00	0.00	0.00	0.00	0.00	0.00	0.00	0.00	0.00	0.00	0.00	0.00	0.00	0.447266	0.496094	0.997070	-147.070007	-208.669998	38.570000	0.00	0.000000	0.000000	8.50	8.25	13.75	16.25	8.75	11.00	0.50	5.25	1.00	0.75	0.75	1.25	2.50	0.25	0.50	1.00	-0.117676	0.148438	1.007812	4.480000	4.060000	3.360000	801.00	-0.195669	-0.112122		
2.24	0.00	0.00	0.00	0.00	0.00	0.00	0.00	0.00	0.00	0.00	0.00	0.00	0.00	0.00	0.00	0.00	0.575684	0.617676	0.992188	-157.430008	-221.130005	47.110001	0.00	0.000000	0.000000	8.25	7.75	13.00	15.25	8.25	10.50	0.50	5.25	1.00	0.75	0.75	1.25	2.75	0.25	0.50	1.25	-0.138672	0.155273	1.006836	3.850000	7.490000	2.590000	770.00	-0.190822	-0.114365		
2.25	0.00	0.00	0.00	0.00	0.00	0.00	0.00	0.00	0.00	0.00	0.00	0.00	0.00	0.00	0.00	0.00	0.616211	0.657227	0.957031	-131.460007	-251.580002	51.799999	0.00	0.000000	0.000000	7.50	7.25	12.25	14.50	7.75	10.25	0.50	5.25	1.00	1.00	0.75	1.25	2.75	0.25	0.50	1.25	-0.143066	0.153320	1.009766	3.500000	8.400000	2.170000	738.00	-0.184915	-0.117290		
2.26	0.00	0.00	0.00	0.00	0.00	0.00	0.00	0.00	0.00	0.00	0.00	0.00	0.00	0.00	0.00	0.00	0.464844	0.562988	0.942871	-92.120003	-284.200012	52.290001	0.00	0.000000	0.000000	7.50	6.50	11.50	14.00	7.50	9.75	0.50	4.75	1.00	1.00	1.25	1.50	2.75	0.50	0.50	1.25	-0.143066	0.153320	1.009766	3.500000	8.400000	2.170000	714.00	-0.177676	-0.114974		
2.27	0.00	0.00	0.00	0.00	0.00	0.00	0.00	0.00	0.00	0.00	0.00	0.00	0.00	0.00	0.00	0.00	0.317871	0.469238	0.835938	-58.029999	-305.410004	48.930000	0.00	0.000000	0.000000	7.50	6.25	10.75	12.50	6.75	9.50	0.50	4.75	1.00	1.00	1.25	1.50	3.00	0.50	0.50	1.25	-0.140625	0.161133	1.006836	2.940000	9.170000	1.400000	681.00	-0.173178	-0.117072		
2.28	0.00	0.00	0.00	0.00	0.00	0.00	0.00	0.00	0.00	0.00	0.00	0.00	0.00	0.00	0.00	0.00	0.229004	0.365234	0.724121	-35.560001	-314.440002	42.630001	0.00	0.000000	0.000000	7.00	6.00	10.25	11.25	6.25	9.00	0.25	4.75	1.00	1.25	1.00	1.75	3.25	0.25	0.50	1.50	-0.137207	0.163574	0.996094	2.240000	10.570000	-0.000000	647.00	-0.167867	-0.122565		
2.29	0.00	0.00	0.00	0.00	0.00	0.00	0.00	0.00	0.00	0.00	0.00	0.00	0.00	0.00	0.00	0.00	0.134766	0.359375	0.710938	-20.370001	-315.420013	34.720001	0.00	0.000000	0.000000	6.75	5.50	9.50	10.50	5.75	8.75	0.25	4.25	1.50	1.25	1.50	1.75	3.00	0.25	0.50	1.75	-0.134277	0.163086	0.998535	1.330000	11.270000	-0.000000	621.00	-0.157665	-0.117809		
2.30	0.00	0.00	0.00	0.00	0.00	0.00	0.00	0.00	0.00	0.00	0.00	0.00	0.00	0.00	0.00	0.00	0.061035	0.355469	0.783203	-6.370000	-314.089996	27.090000	0.00	0.000000	0.000000	5.50	4.75	9.00	8.75	5.50	7.00	0.25	4.00	1.50	1.25	1.75	2.25	3.25	0.25	0.50	2.00	-0.133301	0.164062	0.982422	-0.140000	12.180000	-2.520000	567.00	-0.138828	-0.118044		
2.31	0.00	0.00	0.00	0.00	0.00	0.00	0.00	0.00	0.00	0.00	0.00	0.00	0.00	0.00	0.00	0.00	0.021484	0.363281	0.886719	9.450000	-315.700012	21.210001	0.00	0.000000	0.000000	5.25	4.00	8.00	7.75	5.00	6.50	0.25	4.00	1.50	1.50	1.75	2.25	3.50	0.25	0.75	2.00	-0.138672	0.166504	0.996582	-1.610000	13.580000	-3.920000	535.00	-0.123865	-0.120989		
2.32	0.00	0.00	0.00	0.00	0.00	0.00	0.00	0.00	0.00	0.00	0.00	0.00	0.00	0.00	0.00	0.00	-0.010742	0.367676	0.970215	25.690001	-321.510010	18.059999	0.00	0.000000	0.000000	4.25	3.50	7.00	7.00	4.25	5.75	0.25	4.00	1.75	1.75	1.75	2.50	3.50	0.50	1.00	2.00	-0.147949	0.162109	0.994141	-2.940000	15.120000	-5.670000	500.00	-0.100056	-0.124411		
2.33	0.00	0.00	0.00	0.00	0.00	0.00	0.00	0.00	0.00	0.00	0.00	0.00	0.00	0.00	0.00	0.00	-0.060059	0.375000	1.047363	39.270000	-330.119995	18.200001	0.00	0.000000	0.000000	3.75	3.25	5.75	6.00	3.50	4.75	0.25	3.75	2.25	2.25	2.25	3.00	3.25	0.50	1.25	2.50	-0.144043	0.186523	0.998535	-4.200000	16.799999	-7.420000	473.00	-0.068060	-0.122143		
2.34	0.00	0.00	0.00	0.00	0.00	0.00	0.00	0.00	0.00	0.00	0.00	0.00	0.00	0.00	0.00	0.00	-0.120117	0.385742	1.099609	49.630001	-338.100006	20.719999	0.00	0.000000	0.000000	3.50	2.75	4.75	5.00	2.75	4.25	0.25	3.25	2.75	2.25	2.50	3.25	3.50	0.50	1.00	2.75	-0.148438	0.189453	1.004395	-5.320000	19.530001	-10.150000	438.00	-0.044996	-0.120521		
2.35	0.00	0.00	0.00	0.00	0.00	0.00	0.00	0.00	0.00	0.00	0.00	0.00	0.00	0.00	0.00	0.00	-0.279785	0.468262	1.316406	60.689999	-344.890015	34.439999	0.00	0.000000	0.000000	2.75	2.00	4.25	3.50	2.00	3.75	0.00	3.00	3.25	2.75	2.75	3.25	3.50	0.50	1.75	3.00	-0.140625	0.200684	1.035645	-6.370000	22.889999	-13.440001	407.00	-0.001156	-0.116804		
2.36	0.00	0.00	0.00	0.00	0.00	0.00	0.00	0.00	0.00	0.00	0.00	0.00	0.00	0.00	0.00	0.00	-0.279785	0.468262	1.316406	60.689999	-344.890015	34.439999	0.00	0.000000	0.000000	2.00	1.50	3.50	3.25	1.50	2.25	0.00	2.50	4.00	3.25	3.00	3.25	3.50	0.50	2.25	3.50	-0.141113	0.207520	1.027832	-7.490000	27.790001	-17.290001	382.00	0.043802	-0.104519		
2.37	0.00	0.00	0.00	0.00	0.00	0.00	0.00	0.00	0.00	0.00	0.00	0.00	0.00	0.00	0.00	0.00	-0.361816	0.571777	1.342773	67.550003	-343.910004	45.430000	0.00	0.000000	0.000000	1.50	1.00	2.25	2.50	1.25	1.50	0.00	2.25	4.75	3.75	3.75	3.50	3.50	0.75	2.50	3.50	-0.157227	0.234375	1.040039	-7.140000	34.020000	-22.680000	367.00	0.094796	-0.094211		
2.38	0.00	0.00	0.00	0.00	0.00	0.00	0.00	0.00	0.00	0.00	0.00	0.00	0.00	0.00	0.00	0.00	-0.787109	0.588867	1.483887	91.840004	-343.700012	76.160004	0.00	0.000000	0.000000	1.25	0.75	1.75	1.50	0.75	1.25	0.00	2.00	5.00	3.75	4.00	3.75	3.75	1.00	2.75	4.25	-0.181641	0.212891	1.044434	-3.360000	40.529999	-28.210001	355.00	0.133182	-0.093325		
2.39	0.00	0.00	0.00	0.00	0.00	0.00	0.00	0.00	0.00	0.00	0.00	0.00	0.00	0.00	0.00	0.00	-1.087891	0.535156	1.506836	99.400002	-338.940002	95.340004	0.00	0.000000	0.000000	0.50	0.75	0.75	0.75	0.50	1.00	0.00	1.50	5.50	4.25	4.25	3.75	3.75	1.50	3.00	4.75	-0.239258	0.058594	1.104492	2.660000	53.900002	-29.750000	340.00	0.183832	-0.083749		
2.40	0.00	0.00	0.00	0.00	0.00	0.00	0.00	0.00	0.00	0.00	0.00	0.00	0.00	0.00	0.00	0.00	-1.391113	0.455566	1.485352	101.779999	-332.360016	113.190002	0.00	0.000000	0.000000	0.50	0.00	0.75	0.75	0.25	1.00	0.00	1.50	5.25	4.50	4.75	4.25	4.00	2.00	3.50	5.00	-0.209473	0.072754	1.104980	6.090000	75.389999	-25.340000	352.00	0.203630	-0.088731		
2.41	0.00	0.00	0.00	0.00	0.00	0.00	0.00	0.00	0.00	0.00	0.00	0.00	0.00	0.00	0.00	0.00	-1.729980	0.369629	1.466309	101.360001	-324.799988	125.720001	0.00	0.000000	0.000000	0.25	0.00	0.50	0.25	0.00	1.00	0.00	1.25	6.00	5.00	4.75	4.75	4.00	3.25	4.00	6.00	-0.241699	0.104492	1.010742	7.070000	87.080002	-21.000000	374.00	0.233422	-0.075540		
2.42	0.00	0.00	0.00	0.00	0.00	0.00	0.00	0.00	0.00	0.00	0.00	0.00	0.00	0.00	0.00	0.00	-2.187012	0.286621	1.445312	101.430000	-316.540009	132.160004	0.00	0.000000	0.000000	0.00	0.25	0.50	0.25	0.00	0.75	0.00	1.00	5.75	5.25	5.00	4.75	4.00	4.00	4.25	7.00	-0.206543	0.082031	1.106934	5.670000	94.709999	-17.010000	383.00	0.243826	-0.074418		
2.43	0.00	0.00	0.00	0.00	0.00	0.00	0.00	0.00	0.00	0.00	0.00	0.00	0.00	0.00	0.00	0.00	-2.771484	0.134277	1.410156	105.070000	-305.690002	131.880005	0.00	0.000000	0.000000	0.00	0.00	0.25	0.25	0.00	0.75	0.00	0.75	6.25	5.50	5.25	5.00	4.00	4.75	5.00	8.50	-0.244629	0.115234	1.166992	3.500000	109.760002	-12.600000	409.00	0.259879	-0.068811		
2.44	0.00	0.00	0.00	0.00	0.00	0.00	0.00	0.00	0.00	0.00	0.00	0.00	0.00	0.00	0.00	0.00	-3.339355	-0.039551	1.247559	111.160004	-288.820007	121.730003	0.00	0.000000	0.000000	0.00	0.25	0.00	0.00	0.00	0.25	0.00	0.50	6.25	5.50	5.50	5.25	4.00	5.25	5.25	9.00	-0.279785	0.140137	1.157227	1.750000	131.389999	-10.640000	411.00	0.272735	-0.064964		
2.45	0.00	0.00	0.00	0.00	0.00	0.00	0.00	0.00	0.00	0.00	0.00	0.00	0.00	0.00	0.00	0.00	-3.769043	-0.194824	1.086426	127.540001	-264.739990	102.830002	0.00	0.000000	0.000000	0.00	0.00	0.00	0.00	0.00	0.00	0.00	0.25	6.25	6.00	5.50	5.00	3.75	5.75	5.50	9.25	-0.309082	0.170410	1.179199	0.070000	157.570007	-11.760000	411.00	0.284161	-0.054195		
2.46	0.00	0.00	0.00	0.00	0.00	0.00	0.00	0.00	0.00	0.00	0.00	0.00	0.00	0.00	0.00	0.00	-4.128906	-0.381348	0.883789	150.430008	-235.830002	80.150002	0.00	0.000000	0.000000	0.00	0.00	0.00	0.00	0.00	0.00	0.00	0.25	6.50	6.50	5.50	5.00	3.75	7.25	5.50	9.25	-0.341797	0.220703	1.259277	0.280000	188.580002	-16.309999	430.00	0.286996	-0.044288		
2.47	0.00	0.00	0.00	0.00	0.00	0.00	0.00	0.00	0.00	0.00	0.00	0.00	0.00	0.00	0.00	0.00	-4.299805	-0.553223	0.656250	166.110001	-203.070007	57.330002	0.00	0.000000	0.000000	0.00	0.25	0.00	0.00	0.00	0.00	0.00	0.25	6.25	6.50	5.50	5.00	3.50	7.50	5.25	8.75	-0.382324	0.288086	1.306641	-0.490000	226.729996	-24.639999	424.00	0.283741	-0.042356		
2.48	0.00	0.00	0.00	0.00	0.00	0.00	0.00	0.00	0.00	0.00	0.00	0.00	0.00	0.00	0.00	0.00	-7.400391	-1.302246	-1.758301	150.289993	-177.169998	35.910000	0.00	0.000000	0.000000	0.00	0.00	0.00	0.00	0.00	0.00	0.00	0.25	6.25	6.75	5.25	5.00	3.25	7.50	5.25	8.25	-0.409180	0.325195	1.360352	-5.110000	266.209991	-36.540001	418.00	0.287448	-0.037082		
2.49	0.00	0.00	0.00	0.00	0.00	0.00	0.00	0.00	0.00	0.00	0.00	0.00	0.00	0.00	0.00	0.00	-4.964355	-2.065918	-0.993652	-59.010002	-19.670000	14.070000	0.00	0.000000	0.000000	0.00	0.00	0.00	0.00	0.00	0.00	0.00	0.00	6.25	7.00	5.25	5.00	3.00	7.50	5.00	7.00	-0.446289	0.361328	1.493652	-12.740000	307.649994	-50.540001	406.00	0.288499	-0.026845		
2.50	0.00	0.00	0.50	1.25	0.00	0.00	0.00	0.00	0.00	0.00	0.00	0.00	0.00	0.00	0.00	0.00	-6.037598	-1.568359	-1.461426	-215.320007	93.169998	-17.430000	18.00	0.000000	0.000000	0.00	0.00	0.00	0.00	0.00	0.00	0.00	0.00	6.25	7.00	5.25	4.75	2.75	6.75	4.75	5.50	-0.460938	0.375000	1.617676	-21.840000	349.860016	-65.169998	386.00	0.285614	-0.020103		
2.51	3.00	1.50	4.00	4.50	0.00	0.00	0.00	0.00	0.00	0.00	0.00	0.00	0.00	0.00	0.00	0.00	-5.961426	-1.056152	2.017578	-181.160004	226.169998	-12.040000	127.00	-0.319193	-0.043395	0.00	0.00	0.00	0.00	0.00	0.00	0.00	0.00	6.00	6.50	5.25	4.75	2.25	5.75	4.25	4.75	-0.551758	0.396973	1.823242	-20.719999	403.619995	-80.080002	358.00	0.282544	-0.019168		11.00
2.52	6.00	5.50	8.50	8.75	0.25	0.75	0.00	0.50	0.00	0.00	0.00	0.00	0.00	0.00	0.00	0.00	-0.941895	-1.518066	1.816895	23.730000	344.540009	61.389999	295.00	-0.312371	-0.061464	0.00	0.00	0.00	0.00	0.00	0.00	0.00	0.00	5.50	6.25	4.75	4.25	2.00	5.25	3.50	3.75	-0.994141	0.623535	2.486816	-17.360001	504.279999	-104.930000	321.00	0.280424	-0.013306		
2.53	9.25	9.00	12.75	13.50	1.25	4.00	0.25	0.75	0.00	0.00	0.00	0.25	0.50	0.00	0.00	0.00	-0.467285	-0.757812	2.995605	-7.630000	123.199997	37.869999	502.00	-0.292447	-0.075307	0.00	0.00	0.00	0.00	0.00	0.00	0.00	0.00	5.50	5.50	4.25	3.75	1.50	4.75	2.50	2.75	-1.380859	0.509766	3.500000	-15.540000	503.720001	-107.309998	282.00	0.277586	0.002683		
2.54	10.25	9.25	14.25	14.75	3.00	4.25	0.25	0.75	0.00	0.00	0.00	0.00	0.75	0.00	0.00	0.00	0.427246	0.212891	0.454102	0.350000	-53.549999	-0.350000	561.00	-0.288596	-0.068406	0.00	0.00	0.00	0.00	0.00	0.00	0.00	0.00	4.50	4.75	3.50	3.00	1.50	3.75	1.25	2.25	-1.380859	0.509766	3.500000	-15.540000	503.720001	-107.309998	226.00	0.271256	0.001671		
2.55	9.50	8.75	14.25	14.00	4.00	4.50	0.25	0.75	0.00	0.25	0.00	0.25	0.75	0.25	0.00	0.00	-0.208984	0.224609	1.491699	-52.779999	36.610001	-6.860000	561.00	-0.275845	-0.065962	0.00	0.00	0.00	0.00	0.00	0.00	0.00	0.00	3.50	4.00	2.75	2.50	1.00	2.50	0.75	1.75	-1.250000	0.560059	3.060059	14.490000	493.360016	-101.709999	174.00	0.266516	0.001060	25.00	
2.56	8.75	9.00	14.00	13.50	4.50	4.75	0.25	1.50	0.25	0.50	0.00	0.50	0.75	0.50	0.00	0.25	-0.137207	-0.035156	1.007324	-34.860001	3.570000	1.610000	577.00	-0.257518	-0.071824	0.00	0.00	0.00	0.00	0.00	0.00	0.00	0.00	2.75	3.25	2.25	1.75	0.50	1.50	0.50	1.25	-0.879883	0.899414	3.501953	-10.430000	469.769989	-132.930008	129.00	0.263200	0.010821		
2.57	8.00	8.00	14.25	13.25	6.00	5.75	0.50	1.75	0.75	1.00	0.50	0.50	0.75	0.75	0.00	0.50	-0.167969	0.046875	0.949219	-13.370000	-13.580000	-5.530000	613.00	-0.229218	-0.066949	0.00	0.00	0.00	0.00	0.00	0.00	0.00	0.00	2.00	2.25	1.50	1.25	0.25	0.75	0.25	1.00	-0.045410	1.280762	2.940430	-32.830002	465.429993	-161.910004	87.00	0.259247	0.012126		
2.58	7.50	7.25	14.25	12.75	7.75	6.50	0.50	2.75	1.00	1.25	0.50	0.50	0.75	1.25	0.25	0.75	-0.239258	0.227539	0.986328	1.260000	-12.390000	-2.240000	649.00	-0.205984	-0.068907	0.00	0.00	0.00	0.00	0.00	0.00	0.00	0.00	1.00	1.50	1.00	0.75	0.00	0.25	0.00	0.50	0.884277	1.282227	2.300781	-25.129999	441.420013	-188.720001	48.00	0.000000	0.000000		
2.59	7.25	6.75	14.00	12.50	9.00	7.50	0.75	3.75	2.00	2.00	0.75	1.00	1.25	1.75	0.50	1.00	-0.222168	0.087402	1.093750	3.780000	-4.550000	0.210000	715.00	-0.171273	-0.070186	0.00	0.00	0.00	0.00	0.00	0.00	0.00	0.00	0.50	0.50	0.25	0.25	0.00	0.00	0.00	0.00	1.840332	1.319336	0.885742	21.840000	380.100006	-207.759995	16.00	0.000000	0.000000		
2.60	7.00	6.75	13.50	12.25	9.50	8.50	1.00	4.00	2.75	2.25	1.00	1.50	2.00	3.00	0.50	2.00	-0.180664	0.115234	1.008301	4.760000	-0.420000	-0.770000	766.00	-0.143634	-0.071697	0.00	0.00	0.00	0.00	0.00	0.00	0.00	0.00	0.00	0.00	0.00	0.00	0.00	0.00	0.00	0.00	1.134766	2.203125	1.911133	98.279999	270.269989	-200.550003	0.00	0.000000	0.000000		
2.61	7.25	6.75	13.25	12.00	10.25	8.50	1.25	4.25	3.75	2.25	1.75	1.75	2.75	3.25	0.50	2.25	-0.141113	0.137695	1.063477	5.880000	0.840000	-0.700000	809.00	-0.127166	-0.068577	0.00	0.00	0.00	0.00	0.00	0.00	0.00	0.00	0.00	0.00	0.00	0.00	0.00	0.00	0.00	0.00	0.681641	1.933105	3.550781	165.479996	38.639999	-117.669998	0.00	0.000000	0.000000		
2.62	7.00	6.50	12.75	11.50	10.00	9.00	1.25	4.50	3.75	2.50	2.25	2.25	3.25	3.25	0.75	2.25	-0.154297	0.130371	1.067871	5.670000	3.430000	-0.630000	818.00	-0.115309	-0.075067	0.00	0.00	0.00	0.00	0.00	0.00	0.00	0.00	0.00	0.00	0.00	0.00	0.00	0.00	0.00	0.00	1.328125	0.609375	2.442871	112.349998	-99.820000	-8.540000	0.00	0.000000	0.000000		
2.63	6.50	6.00	12.25	11.25	9.75	8.75	1.25	5.00	4.25	2.75	2.50	2.25	3.75	3.25	1.00	2.75	-0.150391	0.114746	1.037109	5.880000	6.580000	0.280000	823.00	-0.100567	-0.078509	0.00	0.00	0.00	0.00	0.00	0.00	0.00	0.00	0.00	0.00	0.00	0.00	0.00	0.00	0.00	0.00	1.236816	0.088867	1.206055	-21.490000	-172.339996	69.160004	0.00	0.000000	0.000000		
2.64	6.00	5.75	11.75	11.00	9.25	8.50	1.25	5.00	4.25	2.75	2.50	2.75	3.75	3.50	1.00	3.50	-0.142090	0.123047	1.023926	8.190000	8.400000	1.540000	812.00	-0.090861	-0.082005	0.00	0.00	0.00	0.00	0.00	0.00	0.00	0.00	0.00	0.00	0.00	0.00	0.00	0.00	0.00	0.00	0.732422	0.264160	1.150391	-132.860001	-198.520004	105.980003	0.00	0.000000	0.000000		
2.65	6.00	5.75	11.00	10.75	8.50	8.25	1.00	5.00	4.50	3.00	2.75	3.25	4.00	3.50	0.75	3.50	-0.086914	0.182617	1.020996	9.170000	10.080000	1.540000	800.00	-0.084624	-0.085933	0.00	0.00	0.00	0.00	0.00	0.00	0.00	0.00	0.00	0.00	0.00	0.00	0.00	0.00	0.00	0.00	0.624512	0.699707	1.014648	-179.830002	-207.899994	123.129997	0.00	0.000000	0.000000		
2.66	5.50	5.25	10.25	9.50	7.75	7.50	1.00	5.00	4.50	3.00	3.25	3.25	4.00	3.75	1.00	3.50	-0.113281	0.156250	1.010254	6.930000	12.600000	0.420000	765.00	-0.069872	-0.085303	0.00	0.00	0.00	0.00	0.00	0.00	0.00	0.00	0.00	0.00	0.00	0.00	0.00	0.00	0.00	0.00	0.742676	0.726074	0.800781	-152.320007	-226.589996	127.959999	0.00	0.000000	0.000000		
2.67	5.00	4.75	9.00	8.75	6.75	7.00	0.75	5.00	4.50	3.25	3.50	3.00	4.00	3.75	1.25	3.75	-0.131836	0.135254	1.023926	4.970000	15.610000	-0.350000	724.00	-0.055945	-0.089348	0.00	0.00	0.00	0.00	0.00	0.00	0.00	0.00	0.00	0.00	0.00	0.00	0.00	0.00	0.00	0.00	0.654785	0.680176	0.791016	-79.940002	-255.220001	122.080002	0.00	0.000000	0.000000		
2.68	4.75	4.50	8.50	8.75	5.75	6.50	0.75	4.50	4.75	3.50	3.50	3.00	4.00	3.75	1.50	4.00	-0.145508	0.144531	1.019043	3.990000	18.830000	-0.700000	701.00	-0.046248	-0.087247	0.00	0.00	0.00	0.00	0.00	0.00	0.00	0.00	0.00	0.00	0.00	0.00	0.00	0.00	0.00	0.00	0.432617	0.451172	0.832031	-10.080000	-281.399994	110.250000	0.00	0.000000	0.000000		
2.69	4.25	4.25	6.75	8.25	5.25	5.75	0.75	4.50	4.75	3.50	3.50	3.50	4.00	4.25	1.50	4.00	-0.152344	0.131836	1.004395	3.080000	20.790001	-1.120000	668.00	-0.028567	-0.091077	0.00	0.00	0.00	0.00	0.00	0.00	0.00	0.00	0.00	0.00	0.00	0.00	0.00	0.00	0.00	0.00	0.312500	0.196289	0.830078	30.940001	-299.040009	96.250000	0.00	0.000000	0.000000		
2.70	4.00	3.75	5.50	7.25	4.50	5.00	0.50	4.25	4.75	3.50	3.75	3.50	4.00	4.25	1.75	4.00	-0.161621	0.137695	1.001953	2.800000	22.049999	-1.400000	621.00	-0.010830	-0.092789	0.00	0.00	0.00	0.00	0.00	0.00	0.00	0.00	0.00	0.00	0.00	0.00	0.00	0.00	0.00	0.00	0.205078	0.034668	0.800293	42.209999	-310.450012	81.550003	0.00	0.000000	0.000000		
2.71	3.75	3.50	4.75	6.25	4.25	4.50	0.50	4.00	4.50	3.50	3.75	3.50	4.00	4.00	1.75	4.00	-0.149902	0.148926	1.000977	2.030000	24.990000	-2.660000	583.00	-0.000750	-0.093595	0.00	0.00	0.00	0.00	0.00	0.00	0.00	0.00	0.00	0.00	0.00	0.00	0.00	0.00	0.00	0.00	0.107910	0.022461	0.845703	36.470001	-316.470001	67.620003	0.00	0.000000	0.000000		
2.72	3.50	3.50	4.00	5.00	3.25	4.25	0.25	4.00	4.50	3.50	3.75	3.50	3.75	4.00	2.25	4.25	-0.139648	0.148926	1.000488	2.030000	24.990000	-2.660000	549.00	0.017481	-0.097241	0.00	0.00	0.00	0.00	0.00	0.00	0.00	0.00	0.00	0.00	0.00	0.00	0.00	0.00	0.00	0.00	0.050781	0.069824	0.912109	28.700001	-319.619995	57.610001	0.00	0.000000	0.000000		
2.73	3.50	2.25	3.50	4.25	2.25	4.25	0.25	3.75	4.50	3.75	4.00	3.50	3.75	4.00	2.50	4.25	-0.152344	0.150391	1.007324	-1.120000	30.030001	-5.460000	519.00	0.040238	-0.096202	0.00	0.00	0.00	0.00	0.00	0.00	0.00	0.00	0.00	0.00	0.00	0.00	0.00	0.00	0.00	0.00	0.025391	0.128418	1.003906	29.889999	-324.029999	52.709999	0.00	0.000000	0.000000		
2.74	3.25	1.25	3.25	3.75	1.75	2.75	0.25	3.00	4.25	3.75	4.00	3.75	3.75	3.75	2.25	4.50	-0.155762	0.144531	1.007812	-2.870000	33.880001	-7.000000	467.00	0.061903	-0.090257	0.00	0.00	0.00	0.00	0.00	0.00	0.00	0.00	0.00	0.00	0.00	0.00	0.00	0.00	0.00	0.00	-0.020020	0.172363	1.096191	38.990002	-332.500000	51.939999	0.00	0.000000	0.000000		
2.75	1.25	0.75	2.50	3.25	1.25	1.75	0.25	2.50	4.50	3.75	4.25	3.75	3.50	4.25	2.50	4.50	-0.150879	0.159180	1.013672	-3.780000	37.799999	-9.240000	419.00	0.113555	-0.085868	0.00	0.00	0.00	0.00	0.00	0.00	0.00	0.00	0.00	0.00	0.00	0.00	0.00	0.00	0.00	0.00	-0.080078	0.175293	1.181641	50.189999	-342.929993	54.180000	0.00	0.000000	0.000000		
2.76	1.25	0.00	1.75	3.00	1.00	1.50	0.25	1.75	4.50	4.25	4.25	4.00	3.25	4.50	2.75	4.50	-0.144531	0.194336	1.011719	-4.900000	43.959999	-13.160000	396.00	0.143428	-0.075073	0.00	0.00	0.00	0.00	0.00	0.00	0.00	0.00	0.00	0.00	0.00	0.00	0.00	0.00	0.00	0.00	-0.162109	0.164062	1.270996	58.099998	-350.839996	58.799999	0.00	0.000000	0.000000		
2.77	1.00	0.00	1.00	2.00	0.50	0.50	0.00	1.50	4.75	4.25	4.75	4.00	3.25	4.50	3.00	4.75	-0.170410	0.144043	1.078125	-0.490000	55.790001	-18.410000	366.00	0.185632	-0.070641	0.00	0.00	0.00	0.00	0.00	0.00	0.00	0.00	0.00	0.00	0.00	0.00	0.00	0.00	0.00	0.00	-0.212402	0.184570	1.372559	61.529999	-355.179993	64.889999	0.00	0.000000	0.000000		
2.78	0.50	0.00	0.50	1.75	0.25	0.00	0.00	1.25	4.75	4.25	4.75	4.00	3.25	4.75	3.50	5.25	-0.180176	0.145020	1.049316	-0.210000	73.010002	-19.320000	352.00	0.217966	-0.069690	0.00	0.00	0.00	0.00	0.00	0.00	0.00	0.00	0.00	0.00	0.00	0.00	0.00	0.00	0.00	0.00	-0.312012	0.232422	1.484375	65.239998	-358.329987	70.699997	0.00	0.000000	0.000000		
2.79	0.00	0.00	0.50	1.25	0.25	0.50	0.00	1.00	5.00	4.25	4.75	4.00	3.00	5.25	3.50	5.50	-0.211426	0.154297	0.995605	-2.800000	83.090004	-20.440001	350.00	0.233925	-0.062500	0.00	0.00	0.00	0.00	0.00	0.00	0.00	0.00	0.00	0.00	0.00	0.00	0.00	0.00	0.00	0.00	-0.464355	0.289551	1.681152	70.349998	-361.339996	76.860001	0.00	0.000000	0.000000		
2.80	0.25	0.00	0.50	0.50	0.25	0.50	0.00	0.75	5.00	4.50	4.75	4.25	2.75	5.50	3.25	5.75	-0.221680	0.143066	0.989258	-4.130000	88.690002	-21.210001	345.00	0.243892	-0.052321	0.00	0.00	0.00	0.00	0.00	0.00	0.00	0.00	0.00	0.00	0.00	0.00	0.00	0.00	0.00	0.00	-0.953125	0.367676	1.924316	73.849998	-366.519989	97.090004	0.00	0.000000	0.000000		
2.81	0.00	0.00	0.25	0.00	0.00	0.50	0.00	0.50	5.00	4.50	5.00	4.50	2.75	5.75	3.75	5.75	-0.234375	0.137207	1.000000	-3.570000	94.290001	-21.840000	340.00	0.268287	-0.050609	0.00	0.00	0.00	0.00	0.00	0.00	0.00	0.00	0.00	0.00	0.00	0.00	0.00	0.00	0.00	0.00	-1.231934	0.375488	1.997559	64.050003	-367.149994	113.120003	0.00	0.000000	0.000000		
2.82	0.00	0.00	0.00	0.00	0.00	0.00	0.00	0.50	5.25	4.75	5.00	4.25	2.50	6.00	4.00	6.00	-0.246582	0.121582	1.029297	-2.800000	100.379997	-21.840000	339.00	0.281341	-0.040457	0.00	0.00	0.00	0.00	0.00	0.00	0.00	0.00	0.00	0.00	0.00	0.00	0.00	0.00	0.00	0.00	-1.488770	0.375488	1.997559	64.050003	-367.149994	113.120003	0.00	0.000000	0.000000		
2.83	0.00	0.00	0.00	0.00	0.00	0.00	0.00	0.50	5.50	5.25	4.75	4.50	2.50	7.50	4.00	6.25	-0.297852	0.123535	0.975098	-1.330000	113.330002	-21.210001	360.00	0.285016	-0.031524	0.00	0.00	0.00	0.00	0.00	0.00	0.00	0.00	0.00	0.00	0.00	0.00	0.00	0.00	0.00	0.00	-1.842285	0.474609	2.093750	28.210001	-380.380005	153.789993	0.00	0.000000	0.000000		
2.84	0.00	0.00	0.00	0.00	0.00	0.00	0.00	0.25	5.50	5.25	5.25	4.50	2.75	8.00	4.25	6.75	-0.297852	0.123535	0.975098	-1.330000	113.330002	-20.580000	372.00	0.289053	-0.031575	0.00	0.00	0.00	0.00	0.00	0.00	0.00	0.00	0.00	0.00	0.00	0.00	0.00	0.00	0.00	0.00	-2.389648	0.494629	1.991699	10.150000	-392.000000	168.070007	0.00	0.000000	0.000000		
2.85	0.00	0.00	0.00	0.00	0.00	0.00	0.00	0.00	5.50	5.75	5.25	4.50	2.75	8.75	4.25	7.00	-0.327637	0.108887	0.968750	0.350000	118.020004	-20.160000	381.00	0.293337	-0.024798	0.00	0.00	0.00	0.00	0.00	0.00	0.00	0.00	0.00	0.00	0.00	0.00	0.00	0.00	0.00	0.00	-3.007324	0.456543	1.605957	0.140000	-391.299988	170.240005	0.00	0.000000	0.000000		
2.86	0.00	0.00	0.00	0.00	0.00	0.00	0.00	0.25	5.75	5.75	5.25	4.50	2.75	9.25	4.50	7.25	-0.332031	0.079590	0.951660	0.280000	120.050003	-18.200001	395.00	0.292458	-0.025023	0.00	0.00	0.00	0.00	0.00	0.00	0.00	0.00	0.00	0.00	0.00	0.00	0.00	0.00	0.00	0.00	-3.605469	0.367188	1.082520	9.100000	-360.010010	156.589996	0.00	0.000000	0.000000		
2.87	0.00	0.00	0.00	0.00	0.00	0.00	0.00	0.00	5.75	6.25	5.25	4.50	2.50	10.25	4.50	7.25	-0.371094	0.090820	1.043945	-7.280000	128.449997	-11.200000	402.00	0.297433	-0.014690	0.00	0.00	0.00	0.00	0.00	0.00	0.00	0.00	0.00	0.00	0.00	0.00	0.00	0.00	0.00	0.00	-4.080078	0.305176	0.716797	34.439999	-300.790009	127.610001	0.00	0.000000	0.000000		
2.88	0.00	0.00	0.00	0.00	0.00	0.00	0.00	0.00	5.75	6.50	5.25	4.25	2.50	10.75	5.00	7.25	-0.371094	0.090820	1.043945	-7.280000	128.449997	-11.200000	410.00	0.300037	-0.011545	0.00	0.00	0.00	0.00	0.00	0.00	0.00	0.00	0.00	0.00	0.00	0.00	0.00	0.00	0.00	0.00	-8.377441	-0.427246	0.246582	13.440001	-249.830002	78.610001	0.00	0.000000	0.000000		
2.89	0.00	0.00	0.00	0.00	0.00	0.00	0.00	0.00	6.00	7.00	5.25	4.25	2.25	11.00	5.00	7.25	-0.414551	0.127441	1.060547	-11.480000	140.279999	-10.150000	418.00	0.300196	-0.005611	0.00	0.00	0.00	0.00	0.00	0.00	0.00	0.00	0.00	0.00	0.00	0.00	0.00	0.00	0.00	0.00	-3.979980	-0.384766	-2.104004	22.680000	-109.550003	38.639999	0.00	0.000000	0.000000		
2.90	0.00	0.00	0.00	0.00	0.00	0.00	0.00	0.00	6.00	7.50	5.00	4.25	2.25	11.50	5.00	7.00	-0.443359	0.191406	1.120605	-18.969999	170.240005	-15.680000	423.00	0.300814	-0.001605	0.00	0.00	0.00	0.00	0.00	0.00	0.00	0.00	0.00	0.00	0.00	0.00	0.00	0.00	0.00	0.00	-6.004395	-0.580078	-0.405762	-16.799999	7.840000	6.160000	0.00	0.000000	0.000000		
2.91	0.00	0.00	0.00	0.00	0.00	0.00	0.00	0.00	5.75	7.50	5.00	4.00	2.00	11.50	5.00	6.75	-0.460449	0.182617	1.127441	-24.500000	188.720001	-21.420000	415.00	0.302139	0.001269	0.00	0.00	0.50	0.50	0.00	0.00	0.00	0.00	0.00	0.00	0.00	0.00	0.00	0.00	0.00	0.00	-5.209961	-0.746094	-0.484375	-39.549999	87.360001	7.000000	10.00	0.000000	0.000000		
2.92	0.00	0.00	0.00	0.00	0.00	0.00	0.00	0.00	5.75	8.25	4.75	4.00	2.00	11.50	5.00	6.25	-0.489746	0.180664	1.183105	-31.780001	209.369995	-27.790001	417.00	0.301182	0.004902	0.75	0.00	4.25	1.50	0.00	0.00	0.00	0.00	0.00	0.00	0.00	0.00	0.00	0.00	0.00	0.00	-6.869141	-0.578613	-0.682129	-75.599998	157.149994	38.220001	66.00	-0.285474	0.019256	21.00	
2.93	0.00	0.00	0.00	0.00	0.00	0.00	0.00	0.00	5.50	8.25	4.75	3.50	1.75	11.50	4.75	5.75	-0.515137	0.210449	1.164062	-38.360001	232.119995	-35.070000	402.00	0.302303	0.011323	5.00	1.50	7.75	5.75	0.00	0.00	0.00	0.00	0.00	0.00	0.00	0.00	0.00	0.00	0.00	0.00	-1.237793	-0.796875	1.017578	-43.680000	290.010010	62.230000	197.00	-0.314821	-0.014493		
2.94	0.00	0.00	0.00	0.00	0.00	0.00	0.00	0.00	5.50	8.25	4.50	3.50	1.50	11.25	4.75	5.00	-0.572266	0.228516	1.266113	-42.279999	257.600006	-44.029999	392.00	0.302348	0.016784	9.00	6.50	12.00	13.00	0.50	0.75	0.00	0.25	0.00	0.00	0.00	0.25	0.00	0.00	0.00	0.00	-0.899414	-0.744629	4.160645	-34.230000	350.839996	40.250000	411.00	-0.312476	-0.053519		
2.95	0.00	0.00	0.00	0.00	0.00	0.00	0.00	0.00	5.25	8.50	4.25	3.25	1.50	11.00	4.50	4.50	-0.583984	0.286133	1.357910	-47.740002	288.679993	-55.369999	380.00	0.301801	0.019850	11.25	9.25	17.00	19.25	4.00	6.75	0.00	2.25	0.00	0.00	0.00	0.50	0.50	0.00	0.00	0.00	-0.775391	-0.737305	5.097168	-98.209999	240.660004	1.820000	698.00	-0.273408	-0.086852		
2.96	0.00	0.00	0.00	0.00	0.00	0.00	0.00	0.00	5.00	8.25	4.00	3.00	1.50	10.25	4.25	4.25	-0.717285	0.327148	1.605957	-47.110001	327.390015	-67.690002	360.00	0.301005	0.019735	11.00	9.25	19.00	21.25	6.50	9.25	0.00	3.25	0.00	0.00	0.00	0.75	0.50	0.00	0.00	0.00	-0.983887	0.042480	2.172363	-61.599998	53.760002	-16.309999	803.00	-0.258819	-0.093437		
2.97	0.00	0.00	0.00	0.00	0.00	0.00	0.00	0.00	4.75	7.75	4.00	2.75	1.25	9.25	4.00	3.75	-0.879395	0.399902	1.977539	-44.730000	371.910004	-81.550003	335.00	0.299907	0.021508	10.00	8.50	18.75	20.25	7.50	9.75	0.25	3.50	0.00	0.00	0.00	0.75	0.75	0.00	0.00	0.00	-0.438477	0.339844	1.051758	-44.029999	5.110000	-15.960000	799.00	-0.249508	-0.094116		
2.98	0.00	0.00	0.00	0.00	0.00	0.00	0.00	0.00	4.25	7.00	3.75	2.75	1.00	8.00	3.25	3.25	-1.153809	0.469727	2.491699	-45.430000	410.690002	-95.480003	298.00	0.296839	0.019961	9.50	8.00	17.75	18.75	8.00	9.75	0.25	3.75	0.00	0.00	0.00	0.75	1.00	0.00	0.00	0.25	-0.107422	0.539551	0.835449	-36.610001	29.750000	3.640000	776.00	-0.242791	-0.096466		
2.99	0.00	0.00	0.00	0.00	0.00	0.00	0.00	0.00	3.75	6.25	3.50	2.25	0.75	5.75	2.50	2.50	-1.117188	0.747070	2.795410	13.790000	452.200012	-108.080002	247.00	0.290454	0.020733	9.00	7.25	16.50	17.25	9.00	10.25	0.25	4.25	0.00	0.00	0.00	0.75	2.25	0.00	0.25	0.50	0.116699	-0.027344	0.978027	-21.980000	13.650000	11.760000	773.00	-0.226633	-0.104481		
3.00	0.00	0.00	0.00	0.00	0.00	0.00	0.00	0.00	3.00	5.25	2.75	2.00	0.75	4.75	1.75	2.25	-1.117188	0.747070	2.795410	13.790000	452.200012	-108.080002	203.00	0.288245	0.015772	8.50	6.50	16.00	16.50	9.75	10.75	0.25	4.75	0.00	0.00	0.00	0.75	3.50	0.00	0.25	1.25	-0.305664	0.291992	1.043457	1.260000	-27.440001	-1.750000	782.00	-0.211977	-0.112962		
3.01	0.00	0.00	0.00	0.00	0.00	0.00	0.00	0.00	2.25	4.50	2.50	1.75	0.50	3.50	1.00	1.75	-0.965332	0.590332	2.935059	56.840000	457.450012	-123.199997	160.00	0.281678	0.011438	8.25	6.00	15.50	15.50	10.75	10.75	0.50	5.75	0.25	0.25	0.25	1.50	4.25	0.00	0.25	1.50	-0.305664	0.291992	1.043457	1.260000	-27.440001	-1.750000	810.00	-0.191512	-0.116890		15.00
3.02	0.00	0.00	0.00	0.00	0.00	0.00	0.00	0.00	1.50	4.25	1.75	1.50	0.25	2.25	0.75	1.50	-0.903809	0.523926	3.501465	81.199997	461.299988	-138.740005	124.00	0.277204	0.004362	8.00	6.00	14.75	15.00	11.25	10.50	0.50	5.75	0.50	0.50	0.50	1.50	4.25	0.25	0.50	1.75	-0.090332	0.087402	1.039551	-1.890000	-12.250000	0.980000	811.00	-0.181075	-0.114760		
3.03	0.00	0.00	0.00	0.00	0.00	0.00	0.00	0.00	1.00	3.50	1.25	0.75	0.00	0.00	0.50	1.00	0.356934	0.434570	2.679199	14.420000	451.500000	-182.630005	74.00	0.256333	-0.001088	7.50	5.50	14.25	14.25	11.75	10.25	0.50	5.75	0.75	0.50	0.50	2.00	4.75	0.50	0.50	2.00	-0.172852	0.175293	1.043457	-6.090000	-3.780000	-1.890000	807.00	-0.168799	-0.115436		
3.04	0.00	0.00	0.00	0.00	0.00	0.00	0.00	0.00	0.25	2.00	0.75	0.25	0.00	0.00	0.25	0.50	0.356934	0.434570	2.679199	14.420000	451.500000	-182.630005	37.00	0.000000	0.000000	7.50	5.25	13.75	13.75	11.75	10.25	0.50	5.75	1.50	0.50	0.75	2.25	4.75	0.50	0.50	2.50	-0.153320	0.146484	1.092285	-11.480000	1.400000	-1.540000	811.00	-0.158190	-0.112748		
3.05	0.00	0.00	0.00	0.00	0.00	0.00	0.00	0.00	0.00	1.00	0.50	0.00	0.00	0.00	0.00	0.25	1.800293	0.882324	1.006836	-103.320000	354.549988	-202.160004	16.00	0.000000	0.000000	7.50	4.75	13.25	12.50	11.50	9.75	0.50	5.25	2.50	1.50	0.75	2.25	4.50	0.75	0.50	2.75	-0.153320	0.141602	1.051270	-12.320000	4.620000	-0.420000	798.00	-0.143151	-0.099927		
3.06	0.00	0.00	0.00	0.00	0.00	0.00	0.00	0.00	0.00	0.75	0.00	0.00	0.00	0.00	0.00	0.00	1.800293	0.882324	1.006836	-103.320000	354.549988	-202.160004	7.00	0.000000	0.000000	7.50	4.50	12.50	12.25	11.00	9.25	0.75	5.25	3.00	1.75	0.75	2.50	4.50	1.00	0.75	2.75	-0.133789	0.167480	1.042969	-11.620000	6.720000	-0.630000	794.00	-0.131593	-0.096160		
3.07	0.00	0.00	0.00	0.25	0.00	0.00	0.00	0.00	0.00	0.50	0.00	0.00	0.00	0.00	0.00	0.00	1.063477	1.637207	3.344238	24.219999	-65.519997	-64.820000	7.00	0.000000	0.000000	7.25	4.25	12.00	10.75	10.50	9.00	0.75	4.75	3.50	2.00	1.25	2.50	4.50	1.00	1.00	2.75	-0.120605	0.143066	1.045898	-10.710000	9.450000	-1.470000	770.00	-0.119025	-0.089807		
3.08	0.00	0.00	0.00	0.00	0.00	0.00	0.00	0.00	0.00	0.50	0.00	0.00	0.00	0.00	0.00	0.00	1.375488	0.848633	1.609863	55.090000	-191.029999	5.530000	5.00	0.000000	0.000000	6.75	3.75	11.25	9.75	9.75	8.00	0.75	4.25	4.25	2.25	1.50	2.50	4.25	1.50	0.75	3.00	-0.138184	0.121582	1.058105	-5.250000	18.480000	0.770000	734.00	-0.104138	-0.079985		
3.09	0.00	0.00	0.00	0.00	0.00	0.00	0.00	0.00	0.00	0.50	0.00	0.00	0.00	0.00	0.00	0.00	0.970703	0.673340	1.078613	57.470001	-234.639999	39.830002	5.00	0.000000	0.000000	5.50	3.50	10.50	8.25	9.25	7.00	0.50	4.00	4.75	2.50	1.75	2.75	4.25	2.00	1.25	3.25	-0.131836	0.175293	1.051758	-4.060000	22.750000	0.630000	699.00	-0.079219	-0.076319		
3.10	0.00	0.00	0.00	0.00	0.00	0.00	0.00	0.00	0.00	0.00	0.00	0.00	0.00	0.00	0.00	0.00	0.494141	0.691895	1.123047	60.900002	-242.550003	64.260002	0.00	0.000000	0.000000	5.00	3.50	9.50	7.25	8.25	6.25	0.50	3.75	5.50	3.00	1.75	2.75	4.00	2.75	1.25	3.25	-0.123047	0.168945	1.058594	-6.020000	26.670000	-1.330000	670.00	-0.059492	-0.067104		
3.11	0.00	0.00	0.00	0.00	0.00	0.00	0.00	0.00	0.00	0.00	0.00	0.00	0.00	0.00	0.00	0.00	0.540527	0.524414	1.016602	71.750000	-251.580002	83.860001	0.00	0.000000	0.000000	4.00	2.75	8.75	6.25	7.25	5.25	0.50	3.50	5.50	3.25	1.75	2.50	4.00	3.50	1.25	3.50	-0.116211	0.165527	1.050293	-9.380000	30.940001	-3.710000	620.00	-0.036677	-0.061912		
3.12	0.00	0.00	0.00	0.00	0.00	0.00	0.00	0.00	0.00	0.00	0.00	0.00	0.00	0.00	0.00	0.00	0.531250	0.389160	0.991211	84.840004	-272.649994	98.419998	0.00	0.000000	0.000000	3.50	2.25	7.75	5.50	6.25	4.25	0.50	2.75	5.50	3.50	1.75	2.75	4.00	4.00	1.25	3.50	-0.156738	0.151855	1.028320	-12.530000	35.349998	-5.600000	572.00	-0.015083	-0.054418		
3.13	0.00	0.00	0.00	0.00	0.00	0.00	0.00	0.00	0.00	0.00	0.00	0.00	0.00	0.00	0.00	0.00	0.361328	0.280762	1.071777	92.540001	-296.450012	109.059998	0.00	0.000000	0.000000	3.00	1.75	6.00	4.50	5.50	3.75	0.25	2.25	5.50	3.75	2.00	2.75	3.50	4.25	1.75	3.75	-0.140137	0.159668	1.064453	-14.910000	40.110001	-7.490000	521.00	0.015036	-0.050350		
3.14	0.00	0.00	0.00	0.00	0.00	0.00	0.00	0.00	0.00	0.00	0.00	0.00	0.00	0.00	0.00	0.00	0.239258	0.164551	1.043457	96.040001	-314.230011	116.970001	0.00	0.000000	0.000000	2.00	1.50	4.75	3.50	4.25	2.50	0.25	1.75	5.25	3.75	2.00	2.50	3.00	4.50	2.25	3.75	-0.163574	0.154785	1.059082	-18.760000	46.689999	-9.940000	452.00	0.051286	-0.041506		
3.15	0.00	0.00	0.00	0.00	0.00	0.00	0.00	0.00	0.00	0.00	0.00	0.00	0.00	0.00	0.00	0.00	0.156738	0.065430	0.969238	93.660004	-323.679993	120.750000	0.00	0.000000	0.000000	1.00	0.50	4.25	2.75	2.75	1.75	0.00	1.25	5.50	3.50	2.00	2.50	2.75	4.75	1.75	3.75	-0.180664	0.152344	1.081055	-23.240000	55.650002	-12.320000	384.00	0.092506	-0.030794		
3.16	0.00	0.00	0.00	0.00	0.00	0.00	0.00	0.00	0.00	0.00	0.00	0.00	0.00	0.00	0.00	0.00	0.066406	-0.006348	0.963379	87.919998	-327.179993	119.559998	0.00	0.000000	0.000000	0.50	0.75	2.50	2.00	2.00	1.25	0.00	0.75	5.50	3.75	2.25	2.50	2.25	4.75	2.25	3.75	-0.216309	0.144531	1.122559	-24.360001	67.760002	-13.230000	342.00	0.139252	-0.022379		
3.17	0.00	0.00	0.00	0.00	0.00	0.00	0.00	0.00	0.00	0.00	0.00	0.00	0.00	0.00	0.00	0.00	0.005371	-0.045410	1.019043	82.809998	-328.860016	114.029999	0.00	0.000000	0.000000	0.25	0.00	2.00	1.50	1.25	1.00	0.00	0.50	5.50	3.75	2.25	2.50	2.25	5.00	2.25	3.75	-0.206055	0.143555	1.114746	-16.520000	85.680000	-15.540000	312.00	0.180205	-0.013693		
3.18	0.00	0.00	0.00	0.00	0.00	0.00	0.00	0.00	0.00	0.00	0.00	0.00	0.00	0.00	0.00	0.00	-0.012207	-0.098145	1.071289	79.449997	-330.959991	104.370003	0.00	0.000000	0.000000	0.00	0.00	1.50	1.00	0.75	0.25	0.00	0.25	5.50	3.75	2.50	2.50	1.75	5.00	2.25	3.50	-0.223633	0.133789	1.028320	-15.330000	96.739998	-15.960000	281.00	0.218011	0.004230		
3.19	0.00	0.00	0.00	0.00	0.00	0.00	0.00	0.00	0.00	0.00	0.00	0.00	0.00	0.00	0.00	0.00	-0.045410	-0.082031	1.260742	75.669998	-343.279999	79.940002	0.00	0.000000	0.000000	0.00	0.00	1.25	0.50	0.50	0.00	0.00	0.25	5.50	3.75	2.50	2.50	1.50	5.25	2.25	3.50	-0.234375	0.119629	1.033691	-15.050000	102.760002	-16.590000	268.00	0.240499	0.014470		
3.20	0.00	0.00	0.00	0.00	0.00	0.00	0.00	0.00	0.00	0.00	0.00	0.00	0.00	0.00	0.00	0.00	-0.045410	-0.082031	1.260742	75.669998	-343.279999	79.940002	0.00	0.000000	0.000000	0.00	0.00	0.75	0.25	0.50	0.25	0.00	0.25	5.50	3.75	2.25	2.50	1.25	5.50	2.25	3.25	-0.251465	0.090332	1.021973	-14.490000	107.239998	-15.960000	259.00	0.253208	0.020230		
3.21	0.00	0.00	0.00	0.00	0.00	0.00	0.00	0.00	0.00	0.00	0.00	0.00	0.00	0.00	0.00	0.00	-0.064941	-0.063965	1.325684	76.580002	-350.980011	69.019997	0.00	0.000000	0.000000	0.00	0.00	0.50	0.25	0.25	0.00	0.00	0.25	5.50	3.50	2.00	2.00	1.25	5.50	2.25	3.25	-0.275391	0.097656	1.031738	-13.510000	111.160004	-14.420000	242.00	0.268083	0.029307		
3.22	0.00	0.00	0.00	0.00	0.00	0.00	0.00	0.00	0.00	0.00	0.00	0.00	0.00	0.00	0.00	0.00	-0.208008	-0.030273	1.566406	86.519997	-362.600006	52.360001	0.00	0.000000	0.000000	0.00	0.00	0.25	0.00	0.00	0.00	0.00	0.00	5.50	3.75	2.00	2.00	1.00	5.75	2.50	3.25	-0.293945	0.098145	1.019043	-12.600000	115.639999	-12.670000	236.00	0.291271	0.041815		
3.23	0.00	0.00	0.00	0.00	0.00	0.00	0.00	0.00	0.00	0.00	0.00	0.00	0.00	0.00	0.00	0.00	-0.357910	0.019531	1.735840	93.239998	-368.480011	44.660000	0.00	0.000000	0.000000	0.00	0.00	0.00	0.00	0.00	0.00	0.00	0.00	5.50	3.75	2.00	2.00	1.00	6.25	2.50	3.25	-0.306152	0.110352	1.003906	-12.320000	119.070000	-12.110000	237.00	0.299270	0.043543		
3.24	0.00	0.00	0.00	0.00	0.00	0.00	0.00	0.00	0.00	0.00	0.00	0.00	0.00	0.00	0.00	0.00	-0.523438	0.064453	1.868164	98.139999	-376.110016	40.040001	0.00	0.000000	0.000000	0.00	0.00	0.00	0.00	0.00	0.00	0.00	0.00	5.50	4.00	2.25	2.00	1.00	6.75	2.25	3.25	-0.334473	0.108887	0.992676	-11.200000	121.239998	-12.670000	243.00	0.298726	0.045573		
3.25	0.00	0.00	0.00	0.00	0.00	0.00	0.00	0.00	0.00	0.00	0.00	0.00	0.00	0.00	0.00	0.00	-0.734863	0.095703	1.925293	98.070000	-384.440002	39.970001	0.00	0.000000	0.000000	0.00	0.00	0.00	0.00	0.00	0.00	0.00	0.00	5.50	4.00	2.25	2.00	1.25	7.25	2.25	3.25	-0.342773	0.101074	0.976074	-10.500000	122.709999	-13.230000	249.00	0.299486	0.043588		
3.26	0.00	0.00	0.00	0.00	0.00	0.00	0.00	0.00	0.00	0.00	0.00	0.00	0.00	0.00	0.00	0.00	-0.998535	0.153809	1.948242	94.220001	-391.019989	43.820000	0.00	0.000000	0.000000	0.00	0.00	0.00	0.00	0.00	0.00	0.00	0.00	5.50	4.25	2.50	1.75	1.00	7.75	2.75	3.00	-0.358398	0.113770	0.941406	-10.710000	124.879997	-14.070000	257.00	0.303606	0.050810		
3.27	0.00	0.00	0.00	0.00	0.00	0.00	0.00	0.00	0.00	0.00	0.00	0.00	0.00	0.00	0.00	0.00	-1.385254	0.229004	2.008301	87.849998	-394.660004	51.450001	0.00	0.000000	0.000000	0.00	0.00	0.00	0.00	0.00	0.00	0.00	0.00	5.50	4.25	2.50	1.75	0.75	8.75	2.75	3.00	-0.387207	0.126953	0.921875	-10.290000	126.770004	-16.170000	263.00	0.307871	0.058465		
3.28	0.00	0.00	0.00	0.00	0.00	0.00	0.00	0.00	0.00	0.00	0.00	0.00	0.00	0.00	0.00	0.00	-1.841309	0.232422	1.994141	77.769997	-391.860016	60.970001	0.00	0.000000	0.000000	0.00	0.00	0.00	0.00	0.00	0.00	0.00	0.00	5.25	4.50	2.50	1.75	0.75	9.25	2.75	3.25	-0.387695	0.074219	0.941895	-10.500000	128.800003	-17.920000	268.00	0.309625	0.056103		
3.29	0.00	0.00	0.00	0.00	0.00	0.00	0.00	0.00	0.00	0.00	0.00	0.00	0.00	0.00	0.00	0.00	-2.372070	0.264648	1.941406	66.080002	-383.950012	71.260002	0.00	0.000000	0.000000	0.00	0.00	0.00	0.00	0.00	0.00	0.00	0.00	6.00	5.25	2.50	1.75	0.50	10.00	3.00	3.25	-0.431641	0.066895	0.983887	-12.880000	134.470001	-17.920000	290.00	0.310144	0.067922		
3.30	0.00	0.00	0.00	0.00	0.00	0.00	0.00	0.00	0.00	0.00	0.00	0.00	0.00	0.00	0.00	0.00	-2.909668	0.330078	1.806641	56.980000	-370.089996	80.150002	0.00	0.000000	0.000000	0.00	0.00	0.00	0.00	0.00	0.00	0.00	0.00	6.25	5.50	2.75	2.00	0.50	10.00	3.25	3.25	-0.462891	0.100098	1.011230	-15.400000	144.550003	-18.270000	303.00	0.308352	0.064376		
3.31	0.00	0.00	0.00	0.00	0.00	0.00	0.00	0.00	0.00	0.00	0.00	0.00	0.00	0.00	0.00	0.00	-3.414551	0.298340	1.505371	60.619999	-346.290009	87.919998	0.00	0.000000	0.000000	0.00	0.00	0.00	0.00	0.00	0.00	0.00	0.00	6.25	6.00	3.00	2.25	0.50	10.00	3.50	3.25	-0.490723	0.091797	1.057129	-15.610000	158.550003	-19.879999	314.00	0.306685	0.059106		
3.32	0.00	0.00	0.00	0.00	0.00	0.00	0.00	0.00	0.00	0.00	0.00	0.00	0.00	0.00	0.00	0.00	-3.863281	0.128418	1.121582	81.199997	-309.329987	93.379997	0.00	0.000000	0.000000	0.00	0.00	0.00	0.00	0.00	0.00	0.00	0.00	6.50	6.50	3.50	2.25	0.75	10.50	3.50	3.25	-0.536621	0.167969	1.202637	-12.810000	202.300003	-25.340000	333.00	0.304557	0.056867		
3.33	0.00	0.00	0.00	0.00	0.00	0.00	0.00	0.00	0.00	0.00	0.00	0.00	0.00	0.00	0.00	0.00	-6.890137	-2.607422	1.460449	-17.080000	-222.460007	78.820000	0.00	0.000000	0.000000	0.00	0.00	0.00	0.00	0.00	0.00	0.00	0.00	6.75	7.00	3.50	2.25	0.50	10.25	3.25	3.00	-0.536621	0.167969	1.202637	-12.810000	202.300003	-25.340000	333.00	0.302426	0.063713		
3.34	0.00	0.00	0.00	0.25	0.00	0.00	0.00	0.00	0.00	0.00	0.00	0.00	0.00	0.00	0.00	0.00	-4.599121	-1.247070	-1.486816	-41.090000	-123.480003	69.440002	3.00	0.000000	0.000000	0.00	0.00	0.00	0.00	0.00	0.00	0.00	0.00	7.00	7.50	3.25	2.25	0.50	9.75	3.25	2.75	-0.625000	0.266602	1.420898	-3.010000	281.750000	-43.680000	333.00	0.300169	0.066976		
3.35	0.00	0.00	0.00	0.75	0.00	0.00	0.00	0.00	0.00	0.00	0.00	0.00	0.00	0.00	0.00	0.00	-6.684570	-1.624512	-0.026855	-99.190002	0.140000	50.119999	8.00	0.000000	0.000000	0.00	0.00	0.00	0.00	0.00	0.00	0.00	0.00	6.75	7.75	3.25	2.00	0.50	9.75	3.25	2.50	-0.625000	0.266602	1.420898	-3.010000	281.750000	-43.680000	329.00	0.300602	0.069178		
3.36	0.50	0.00	0.50	1.75	0.00	0.00	0.00	0.00	0.00	0.00	0.00	0.00	0.00	0.00	0.00	0.00	-5.969238	-1.665527	-0.707520	-132.930008	95.410004	45.360001	27.00	0.000000	0.000000	0.00	0.00	0.00	0.00	0.00	0.00	0.00	0.00	6.50	7.75	3.25	2.25	0.50	8.75	2.75	2.50	-0.860840	0.332031	1.660156	-6.230000	372.679993	-67.830002	316.00	0.295881	0.064067		11.00
3.37	3.00	1.75	3.50	3.75	0.00	0.00	0.00	0.00	0.00	0.00	0.00	0.00	0.50	0.00	0.00	0.00	-6.841309	-1.456055	-0.913086	-161.279999	166.110001	48.860001	120.00	-0.308976	-0.053672	0.00	0.00	0.00	0.00	0.00	0.00	0.00	0.00	6.25	7.50	3.25	2.25	0.50	7.50	2.50	2.00	-1.099121	0.392090	2.122559	-10.850000	406.420013	-77.910004	296.00	0.291410	0.062571		
3.38	6.50	7.25	7.75	9.50	0.00	0.50	0.00	0.25	0.00	0.00	0.00	0.00	0.75	0.00	0.00	0.00	-0.728516	-1.342285	1.350098	-58.450001	304.850006	77.489998	311.00	-0.316128	-0.074784	0.00	0.00	0.00	0.00	0.00	0.00	0.00	0.00	5.50	6.50	3.00	2.00	0.50	5.50	1.75	1.75	-1.383789	0.272949	2.635742	-15.960000	424.829987	-83.300003	248.00	0.284691	0.058934		
3.39	12.25	12.75	14.25	16.50	0.50	4.50	0.00	1.75	0.00	0.00	0.00	0.00	0.75	0.00	0.00	0.00	-1.011230	0.482422	4.631348	-37.170002	199.850006	-5.250000	614.00	-0.300208	-0.087316	0.00	0.00	0.00	0.00	0.00	0.00	0.00	0.00	5.50	5.50	2.50	2.00	0.50	4.75	1.25	1.50	-1.401855	0.339844	2.778809	-6.720000	430.429993	-76.650002	222.00	0.281360	0.064514		
3.40	14.25	14.00	17.25	19.25	3.75	7.00	0.25	3.25	0.00	0.00	0.00	0.00	0.75	0.00	0.00	0.00	-0.257812	0.537598	1.385254	-58.450001	70.419998	-18.620001	784.00	-0.281130	-0.087911	0.00	0.00	0.00	0.00	0.00	0.00	0.00	0.00	4.75	4.75	2.00	1.50	0.50	3.75	0.75	1.50	-1.300293	0.319336	3.362793	-0.350000	432.880005	-80.570000	184.00	0.278650	0.067498		
3.41	13.50	13.00	17.25	18.50	4.50	8.25	0.25	3.75	0.00	0.00	0.00	0.25	1.00	0.50	0.00	0.00	-0.264160	0.171875	1.192383	-60.830002	73.150002	-4.270000	796.00	-0.266693	-0.091939	0.00	0.00	0.00	0.00	0.00	0.00	0.00	0.00	3.75	4.00	1.75	1.25	0.50	2.50	0.50	1.25	-1.278809	0.490234	3.519043	-28.350000	422.100006	-95.550003	146.00	0.272601	0.058119	25.00	
3.42	12.00	11.50	16.50	17.25	5.75	9.00	0.25	4.00	0.00	0.00	0.00	0.50	1.25	1.25	0.00	0.25	-0.100586	0.049316	1.141602	-35.840000	27.020000	3.080000	784.00	-0.248352	-0.094527	0.00	0.00	0.00	0.00	0.00	0.00	0.00	0.00	2.75	3.25	1.50	1.00	0.25	1.25	0.50	1.00	-0.608398	0.817383	3.137207	-74.129997	415.239990	-111.930000	109.00	0.267303	0.048752		
3.43	10.25	9.25	15.50	15.75	6.75	9.50	0.25	4.25	0.50	0.50	0.00	0.75	2.25	3.25	0.00	0.50	-0.108887	0.070801	0.894043	-13.650000	1.120000	-3.640000	780.00	-0.209983	-0.092934	0.00	0.00	0.00	0.00	0.00	0.00	0.00	0.00	2.00	2.00	0.75	0.75	0.25	0.75	0.25	0.25	0.454590	1.288574	2.321289	-99.330002	406.700012	-135.729996	69.00	0.261593	0.062961		
3.44	8.75	9.00	14.75	14.75	8.75	10.00	0.25	4.50	2.00	1.00	0.25	1.00	2.75	4.25	0.00	0.75	-0.460938	0.284668	1.144531	-5.670000	3.780000	-2.940000	815.00	-0.177196	-0.086129	0.00	0.00	0.00	0.00	0.00	0.00	0.00	0.00	1.00	1.00	0.50	0.25	0.00	0.50	0.00	0.25	1.418945	1.256348	0.802734	-68.320000	345.589996	-152.250000	34.00	0.000000	0.000000		
3.45	7.50	8.00	14.00	14.00	9.50	9.75	0.50	5.00	2.75	2.25	0.50	1.25	3.75	4.75	0.25	1.00	-0.205078	0.092285	1.075195	-7.000000	10.920000	-3.080000	836.00	-0.145532	-0.085093	0.00	0.00	0.00	0.00	0.00	0.00	0.00	0.00	0.50	0.50	0.00	0.00	0.00	0.25	0.00	0.00	2.227051	1.622559	2.225098	10.850000	262.500000	-154.070007	13.00	0.000000	0.000000		
3.46	7.25	7.25	13.50	13.25	10.00	9.75	0.75	5.25	4.00	3.00	1.00	1.75	4.00	5.50	0.25	1.00	-0.168945	0.142578	1.048828	-4.130000	10.080000	-4.200000	866.00	-0.120708	-0.076908	0.00	0.00	0.00	0.00	0.00	0.00	0.00	0.00	0.25	0.50	0.00	0.00	0.00	0.00	0.00	0.00	0.153320	2.349609	4.983887	131.529999	83.510002	-78.889999	8.00	0.000000	0.000000		
3.47	6.75	6.75	12.75	12.50	10.00	9.50	1.00	5.25	4.50	3.25	1.00	2.00	4.25	5.75	0.25	1.25	-0.164062	0.143066	1.069336	-2.520000	10.080000	-3.710000	859.00	-0.106908	-0.074252	0.00	0.00	0.00	0.00	0.00	0.00	0.00	0.00	0.25	0.50	0.00	0.00	0.00	0.00	0.00	0.00	1.558594	0.693848	3.146484	118.300003	-108.709999	11.550000	8.00	0.000000	0.000000		
3.48	6.25	6.00	12.25	12.00	9.75	9.25	1.00	5.50	4.75	3.75	1.25	2.00	5.00	6.00	0.25	2.00	-0.169434	0.107422	1.034668	0.140000	11.830000	-1.470000	858.00	-0.091163	-0.077091	0.00	0.00	0.00	0.00	0.00	0.00	0.00	0.00	0.25	0.50	0.00	0.00	0.00	0.00	0.00	0.00	1.205566	-0.096680	1.330078	21.840000	-193.059998	61.529999	8.00	0.000000	0.000000		
3.49	5.75	6.00	11.50	11.00	9.25	9.00	1.00	5.50	5.50	4.25	1.25	2.25	5.25	7.00	0.50	2.50	-0.158203	0.165527	1.021484	2.450000	13.440001	-0.140000	859.00	-0.071018	-0.073555	0.00	0.00	0.00	0.00	0.00	0.00	0.00	0.00	0.25	0.50	0.00	0.00	0.00	0.00	0.00	0.00	0.924805	0.061523	1.226562	-90.510002	-210.419998	69.650002	8.00	0.000000	0.000000		
3.50	5.00	5.50	10.75	9.50	8.50	8.50	0.75	5.25	5.75	4.25	1.75	2.75	5.25	6.75	0.75	3.00	-0.143066	0.161133	1.025879	1.470000	15.680000	-1.050000	822.00	-0.054367	-0.075063	0.00	0.00	0.00	0.00	0.00	0.00	0.00	0.00	0.00	0.00	0.00	0.00	0.00	0.00	0.00	0.00	0.776855	0.560547	1.147461	-149.660004	-210.559998	67.760002	0.00	0.000000	0.000000		
3.51	5.00	4.75	10.00	9.25	7.75	8.00	0.75	5.00	6.50	4.50	1.75	3.00	5.00	6.50	0.75	3.25	-0.132324	0.146973	1.022949	-0.420000	18.969999	-1.960000	800.00	-0.043560	-0.070482	0.00	0.00	0.00	0.00	0.00	0.00	0.00	0.00	0.00	0.00	0.00	0.00	0.00	0.00	0.00	0.00	0.913086	0.698242	1.040527	-132.789993	-226.169998	66.709999	0.00	0.000000	0.000000		
