# Measurement Wed, 01 Mar 2023 - 20:01:06.726 (01:11.370) SN8508 SN8509 Size 4, normal
# No Name, No Comment, No tags
# time	left pressure 1[N/cm²]	left pressure 2[N/cm²]	left pressure 3[N/cm²]	left pressure 4[N/cm²]	left pressure 5[N/cm²]	left pressure 6[N/cm²]	left pressure 7[N/cm²]	left pressure 8[N/cm²]	left pressure 9[N/cm²]	left pressure 10[N/cm²]	left pressure 11[N/cm²]	left pressure 12[N/cm²]	left pressure 13[N/cm²]	left pressure 14[N/cm²]	left pressure 15[N/cm²]	left pressure 16[N/cm²]	left acceleration X[g]	left acceleration Y[g]	left acceleration Z[g]	left angular X[dps]	left angular Y[dps]	left angular Z[dps]	left total force[N]	left center of pressure X[-0.5...+0.5]	left center of pressure Y[-0.5...+0.5]	right pressure 1[N/cm²]	right pressure 2[N/cm²]	right pressure 3[N/cm²]	right pressure 4[N/cm²]	right pressure 5[N/cm²]	right pressure 6[N/cm²]	right pressure 7[N/cm²]	right pressure 8[N/cm²]	right pressure 9[N/cm²]	right pressure 10[N/cm²]	right pressure 11[N/cm²]	right pressure 12[N/cm²]	right pressure 13[N/cm²]	right pressure 14[N/cm²]	right pressure 15[N/cm²]	right pressure 16[N/cm²]	right acceleration X[g]	right acceleration Y[g]	right acceleration Z[g]	right angular X[dps]	right angular Y[dps]	right angular Z[dps]	right total force[N]	right center of pressure X[-0.5...+0.5]	right center of pressure Y[-0.5...+0.5]
0.00	9.25	9.50	5.25	8.25	0.75	3.00	0.25	1.00	0.00	0.50	0.50	0.50	0.75	0.00	0.50	0.50	-0.139160	0.078613	0.986328	-1.820000	1.680000	0.560000	386.00	-0.271609	-0.091850	8.75	9.75	5.50	8.25	0.50	2.75	0.00	0.50	0.00	0.50	0.50	0.25	0.00	0.00	0.00	0.25	-0.125488	0.163574	0.999512	-1.400000	-3.780000	3.990000	356.00	-0.303111	-0.082658
0.01	10.00	9.75	5.25	8.25	0.75	3.00	0.25	1.00	0.00	0.50	0.50	0.50	0.75	0.00	0.25	0.50	-0.143066	0.080078	0.987305	-1.820000	1.750000	0.560000	393.00	-0.278935	-0.088681	8.75	9.75	5.50	8.25	0.50	2.50	0.00	0.50	0.00	0.50	0.75	0.25	0.00	0.00	0.00	0.25	-0.120605	0.166504	0.994141	-1.400000	-3.920000	3.920000	356.00	-0.300610	-0.081553
0.02	10.00	9.75	5.25	8.25	0.75	3.50	0.25	1.25	0.00	0.50	0.50	0.50	0.75	0.00	0.25	0.25	-0.143066	0.083008	0.986328	-1.680000	1.890000	0.560000	400.00	-0.277040	-0.092902	8.75	9.75	5.50	8.25	0.25	2.25	0.00	0.50	0.00	0.50	0.50	0.25	0.00	0.25	0.00	0.25	-0.120117	0.165039	0.990234	-1.400000	-3.780000	3.920000	351.00	-0.302541	-0.079542
0.03	10.00	9.75	5.00	8.75	1.00	3.75	0.25	1.25	0.00	0.50	0.50	0.50	0.75	0.00	0.50	0.25	-0.140625	0.084961	0.988281	-1.750000	1.680000	0.560000	410.00	-0.271527	-0.095735	8.50	10.00	6.00	8.25	0.50	3.25	0.00	0.50	0.00	0.50	0.50	0.25	0.25	0.25	0.00	0.25	-0.117188	0.162109	0.997070	-1.540000	-3.850000	4.060000	370.00	-0.294247	-0.085212
0.04	10.00	9.75	5.50	8.75	1.00	4.00	0.25	1.25	0.00	0.50	0.50	0.50	0.75	0.25	0.25	0.25	-0.142090	0.077148	0.984375	-1.820000	1.820000	0.560000	417.00	-0.271468	-0.093327	8.50	10.00	6.00	8.25	0.50	3.25	0.00	0.50	0.00	0.50	0.50	0.00	0.25	0.25	0.25	0.25	-0.127441	0.167969	0.995605	-1.400000	-3.780000	4.130000	370.00	-0.292955	-0.083820
0.05	9.50	10.00	5.50	8.75	0.75	3.75	0.25	1.25	0.00	0.50	0.50	0.50	0.75	0.25	0.00	0.25	-0.143066	0.083008	0.985840	-1.680000	1.890000	0.630000	407.00	-0.276339	-0.095975	8.50	10.00	5.75	8.25	0.50	2.75	0.00	0.50	0.00	0.50	0.50	0.00	0.00	0.25	0.25	0.25	-0.121094	0.166016	0.995117	-1.470000	-3.710000	4.060000	361.00	-0.297648	-0.080347
0.06	9.50	10.25	5.50	8.75	0.75	3.75	0.25	1.25	0.00	0.50	0.50	0.75	0.75	0.00	0.25	0.50	-0.144531	0.075684	0.987305	-1.540000	1.820000	0.630000	414.00	-0.271557	-0.099365	8.50	9.75	5.75	8.25	0.50	2.75	0.00	0.50	0.00	0.50	0.50	0.25	0.00	0.00	0.25	0.25	-0.119629	0.164551	1.000977	-1.610000	-3.780000	3.990000	359.00	-0.297404	-0.082695
0.07	9.50	10.00	5.50	8.50	0.75	4.00	0.25	1.00	0.00	0.50	0.50	0.75	0.75	0.25	0.25	0.25	-0.141113	0.085449	0.986816	-1.820000	1.890000	0.630000	409.00	-0.270853	-0.094841	8.75	9.75	6.25	8.75	0.25	2.50	0.00	0.50	0.00	0.50	0.50	0.25	0.00	0.25	0.00	0.25	-0.119629	0.164062	1.000488	-1.610000	-3.850000	3.990000	366.00	-0.300538	-0.079315
0.08	9.50	9.75	5.25	8.75	0.75	3.75	0.25	1.00	0.00	0.50	0.50	0.50	0.50	0.50	0.00	0.25	-0.143066	0.087402	0.992676	-1.750000	2.030000	0.490000	399.00	-0.276825	-0.091048	8.75	10.00	6.25	8.75	0.25	2.50	0.00	0.50	0.00	0.50	0.50	0.25	0.25	0.25	0.00	0.25	-0.116699	0.166992	1.003418	-1.470000	-3.780000	4.060000	370.00	-0.298666	-0.081869
0.09	9.50	9.75	5.25	8.75	1.00	3.50	0.25	1.00	0.00	0.50	0.50	0.50	0.75	0.25	0.50	0.50	-0.140137	0.081543	0.984863	-1.890000	2.030000	0.560000	405.00	-0.267661	-0.092685	8.50	9.75	6.25	8.75	0.50	2.75	0.00	0.75	0.00	0.50	0.50	0.25	0.00	0.25	0.25	0.25	-0.118652	0.166992	0.994141	-1.400000	-3.850000	3.990000	374.00	-0.290489	-0.083767
0.10	10.00	9.75	5.25	8.75	0.75	3.50	0.25	1.00	0.00	0.50	0.50	0.50	0.75	0.00	0.50	0.25	-0.145996	0.079102	0.990723	-1.610000	1.890000	0.560000	404.00	-0.275360	-0.091906	8.50	9.75	6.25	8.75	0.50	2.75	0.00	0.50	0.00	0.50	0.50	0.00	0.00	0.00	0.25	0.25	-0.118652	0.165039	1.000977	-1.400000	-3.780000	3.920000	367.00	-0.300160	-0.080844
0.11	10.00	9.75	5.50	8.75	0.75	3.50	0.25	1.25	0.00	0.50	0.75	0.50	0.50	0.00	0.50	0.25	-0.142578	0.078125	0.987305	-1.820000	1.960000	0.560000	411.00	-0.272309	-0.091663	8.50	10.00	6.25	9.25	0.50	2.75	0.00	0.50	0.00	0.50	0.50	0.25	0.25	0.00	0.25	0.25	-0.115234	0.160156	0.997070	-1.470000	-3.780000	3.920000	378.00	-0.294915	-0.086608
0.12	10.00	11.00	5.50	8.50	1.00	3.50	0.25	1.25	0.00	0.50	0.50	0.50	0.75	0.00	0.50	0.50	-0.137695	0.082031	0.990234	-1.470000	1.820000	0.630000	422.00	-0.273810	-0.094085	8.50	9.75	6.25	9.25	0.50	2.50	0.00	0.50	0.00	0.50	0.50	0.25	0.00	0.25	0.00	0.25	-0.115234	0.160156	0.997070	-1.470000	-3.780000	3.920000	371.00	-0.298521	-0.081532
0.13	10.00	10.25	5.25	8.50	1.00	3.00	0.25	1.25	0.00	0.50	0.50	0.50	0.75	0.25	0.50	0.50	-0.145996	0.080078	0.990234	-1.400000	1.750000	0.630000	410.00	-0.269871	-0.090654	8.50	10.00	6.00	8.75	0.50	2.25	0.00	0.50	0.00	0.50	0.50	0.25	0.00	0.00	0.00	0.25	-0.120605	0.165039	0.994629	-1.470000	-3.780000	3.850000	361.00	-0.304446	-0.081324
0.14	10.00	10.00	5.25	8.50	1.00	3.50	0.25	1.25	0.00	0.50	0.50	0.50	0.75	0.25	0.25	0.50	-0.140625	0.077148	0.989258	-1.610000	1.890000	0.560000	411.00	-0.271674	-0.092525	8.50	10.00	6.00	9.25	0.50	2.25	0.00	0.50	0.00	0.50	0.50	0.25	0.00	0.25	0.00	0.25	-0.120605	0.168457	0.994141	-1.540000	-3.850000	3.990000	368.00	-0.300414	-0.081907
0.15	10.00	10.25	5.25	8.50	0.75	3.75	0.25	1.25	0.00	0.50	0.50	0.50	0.75	0.00	0.50	0.50	-0.140625	0.081543	0.987793	-1.540000	1.890000	0.490000	413.00	-0.271849	-0.096137	8.50	9.75	6.00	8.75	0.50	2.00	0.00	0.50	0.00	0.50	0.50	0.25	0.25	0.25	0.25	0.25	-0.118164	0.166504	1.000977	-1.330000	-3.710000	3.780000	363.00	-0.293646	-0.080221
0.16	9.50	10.25	5.25	8.50	0.75	3.50	0.25	1.25	0.00	0.50	0.50	0.50	0.75	0.00	0.50	0.25	-0.141602	0.088867	0.992188	-1.680000	1.890000	0.560000	405.00	-0.272997	-0.096778	8.50	9.75	5.75	9.25	0.50	2.00	0.00	0.50	0.00	0.50	0.50	0.25	0.25	0.25	0.00	0.25	-0.118164	0.166504	1.000977	-1.330000	-3.710000	3.780000	363.00	-0.298421	-0.083399
0.17	9.50	10.00	5.25	8.50	0.75	4.00	0.25	1.25	0.00	0.50	0.50	0.75	0.75	0.00	0.50	0.25	-0.144531	0.080078	0.986328	-1.750000	1.820000	0.630000	410.00	-0.267956	-0.099729	8.75	10.00	6.25	9.25	0.25	2.50	0.00	0.50	0.00	0.50	0.50	0.00	0.25	0.00	0.00	0.25	-0.119629	0.169434	1.002441	-1.470000	-3.920000	3.990000	371.00	-0.305569	-0.083781
0.18	10.00	10.25	5.25	8.50	1.00	3.75	0.25	1.00	0.00	0.50	0.50	0.50	0.75	0.00	0.50	0.25	-0.143066	0.080566	0.989258	-1.610000	1.750000	0.630000	411.00	-0.275071	-0.092014	9.00	10.00	6.25	8.75	0.25	2.50	0.00	0.50	0.00	0.50	0.50	0.00	0.25	0.00	0.00	0.25	-0.120117	0.164062	0.991211	-1.540000	-4.060000	3.990000	368.00	-0.306444	-0.080619
0.19	10.00	10.25	5.25	8.50	1.00	3.50	0.25	1.25	0.00	0.50	0.50	0.50	0.75	0.00	0.25	0.50	-0.144043	0.088867	0.990234	-1.540000	1.750000	0.560000	411.00	-0.275669	-0.094186	8.75	10.00	6.25	8.75	0.50	2.00	0.00	0.50	0.00	0.50	0.50	0.25	0.25	0.25	0.00	0.25	-0.119629	0.164551	0.996582	-1.540000	-3.850000	3.920000	368.00	-0.299464	-0.078306
0.20	10.00	10.00	5.25	8.50	1.00	3.50	0.25	1.25	0.00	0.50	0.50	0.50	0.75	0.00	0.25	0.25	-0.147461	0.083496	0.991699	-1.610000	1.820000	0.630000	407.00	-0.276891	-0.093143	8.75	10.00	6.25	8.75	0.25	2.00	0.00	0.50	0.00	0.50	0.50	0.25	0.25	0.25	0.00	0.25	-0.117676	0.166504	0.993164	-1.470000	-3.780000	3.920000	365.00	-0.300662	-0.079266
0.21	10.00	10.25	5.25	8.75	0.75	3.50	0.25	1.25	0.00	0.50	0.25	0.50	0.75	0.25	0.25	0.00	-0.140137	0.077637	0.979004	-1.470000	1.680000	0.630000	408.00	-0.280214	-0.093176	8.75	10.00	6.00	8.75	0.50	2.50	0.00	0.75	0.00	0.50	0.50	0.25	0.25	0.00	0.00	0.25	-0.119141	0.170410	0.996582	-1.540000	-3.850000	3.920000	372.00	-0.298781	-0.086341
0.22	10.25	10.25	5.25	8.50	0.75	3.75	0.25	1.25	0.00	0.50	0.50	0.50	0.75	0.00	0.25	0.25	-0.136230	0.085449	1.000488	-1.680000	1.890000	0.630000	412.00	-0.278503	-0.094382	8.75	10.00	5.75	8.75	0.50	2.25	0.00	0.75	0.00	0.50	0.50	0.25	0.25	0.00	0.25	0.25	-0.116699	0.160645	0.997559	-1.470000	-3.780000	3.780000	369.00	-0.295380	-0.086272
0.23	10.00	10.25	5.25	8.75	1.00	3.75	0.25	1.25	0.00	0.50	0.50	0.50	0.75	0.00	0.25	0.25	-0.147461	0.080566	0.980469	-1.680000	1.820000	0.630000	415.00	-0.276917	-0.095389	8.75	10.00	6.25	9.25	0.50	2.50	0.00	0.50	0.00	0.50	0.25	0.25	0.00	0.00	0.00	0.25	-0.116211	0.166992	0.996582	-1.400000	-3.780000	3.920000	371.00	-0.306981	-0.081939
0.24	9.50	10.25	5.25	8.75	0.75	4.00	0.25	1.25	0.00	0.50	0.50	0.50	0.75	0.25	0.50	0.25	-0.143555	0.079590	0.986816	-1.610000	1.750000	0.630000	414.00	-0.268403	-0.098376	8.75	10.00	6.25	9.25	0.50	2.25	0.00	0.50	0.00	0.50	0.50	0.25	0.00	0.00	0.00	0.25	-0.118652	0.169434	0.994141	-1.400000	-3.920000	3.990000	371.00	-0.304581	-0.080878
0.25	10.00	10.00	5.25	8.75	0.75	4.00	0.25	1.25	0.00	0.50	0.75	0.50	0.75	0.00	0.25	0.00	-0.140625	0.084473	0.983887	-1.470000	1.680000	0.700000	414.00	-0.275391	-0.096509	8.75	10.00	6.25	8.75	0.50	2.25	0.00	0.75	0.00	0.50	0.50	0.25	0.00	0.25	0.00	0.25	-0.120605	0.167969	0.998047	-1.400000	-3.850000	3.990000	372.00	-0.298308	-0.080484
0.26	10.00	10.25	5.25	8.75	0.75	4.00	0.50	1.25	0.00	0.50	0.75	0.50	0.75	0.00	0.00	0.00	-0.140625	0.081055	0.981934	-1.960000	1.890000	0.560000	417.00	-0.277084	-0.094107	8.75	10.50	6.25	9.25	0.50	2.75	0.00	0.75	0.00	0.50	0.50	0.50	0.25	0.00	0.00	0.25	-0.121582	0.168457	0.993652	-1.470000	-3.780000	3.990000	388.00	-0.295598	-0.090338
0.27	10.00	10.25	5.25	8.50	0.75	4.00	0.50	1.25	0.00	0.25	0.50	0.50	0.75	0.25	0.25	0.25	-0.145996	0.083496	0.986328	-1.750000	1.890000	0.630000	415.00	-0.273744	-0.093409	8.75	10.50	6.25	9.25	0.50	2.75	0.00	0.50	0.00	0.50	0.50	0.25	0.00	0.00	0.25	0.25	-0.118164	0.162598	0.997559	-1.540000	-3.850000	3.990000	383.00	-0.299343	-0.084320
0.28	10.25	10.00	5.25	8.75	0.75	4.00	0.25	1.00	0.00	0.25	0.50	0.75	0.50	0.25	0.00	0.50	-0.141602	0.083984	0.987793	-1.820000	1.820000	0.560000	410.00	-0.280457	-0.093133	8.75	10.00	6.00	8.75	0.50	2.50	0.00	0.50	0.00	0.50	0.50	0.50	0.00	0.00	0.25	0.25	-0.115723	0.164062	0.998535	-1.540000	-3.780000	3.920000	371.00	-0.296081	-0.082795
0.29	10.25	10.00	5.25	8.75	0.75	3.75	0.25	1.25	0.00	0.50	0.50	0.50	0.75	0.25	0.25	0.50	-0.143555	0.085938	0.987305	-1.890000	1.890000	0.560000	415.00	-0.272690	-0.094187	8.50	10.00	6.00	8.75	0.50	2.75	0.00	0.50	0.00	0.50	0.50	0.25	0.00	0.25	0.00	0.25	-0.122070	0.163574	0.996582	-1.610000	-3.710000	3.850000	368.00	-0.298586	-0.082539
0.30	10.25	10.00	5.25	8.50	0.75	4.00	0.25	1.25	0.00	0.50	0.50	0.50	0.75	0.00	0.25	0.25	-0.143555	0.077148	0.984863	-1.750000	1.820000	0.630000	412.00	-0.277036	-0.095093	8.50	10.00	6.25	8.75	0.50	2.25	0.00	0.50	0.00	0.50	0.50	0.25	0.00	0.25	0.00	0.25	-0.116211	0.159668	0.994629	-1.470000	-3.780000	3.920000	366.00	-0.300346	-0.078751
0.31	10.25	10.00	5.25	8.75	0.75	4.00	0.25	1.25	0.00	0.25	0.50	0.50	0.75	0.00	0.00	0.25	-0.140625	0.076660	0.995605	-1.610000	1.820000	0.630000	410.00	-0.284132	-0.096885	8.50	10.00	6.00	8.75	0.50	2.50	0.00	0.50	0.00	0.50	0.50	0.25	0.00	0.25	0.00	0.25	-0.117676	0.162598	0.996094	-1.540000	-3.570000	3.990000	366.00	-0.299582	-0.081244
0.32	10.50	10.00	5.25	8.75	0.75	4.00	0.25	1.25	0.00	0.50	0.50	0.50	0.75	0.00	0.25	0.25	-0.145508	0.081543	0.987793	-1.890000	1.820000	0.560000	417.00	-0.277816	-0.094716	8.75	10.00	5.75	8.75	0.50	2.50	0.00	0.50	0.00	0.50	0.50	0.25	0.25	0.25	0.25	0.25	-0.120117	0.168945	0.994141	-1.680000	-3.710000	3.990000	370.00	-0.293340	-0.083262
0.33	10.75	10.00	5.25	8.75	1.00	3.75	0.25	1.25	0.00	0.50	0.50	0.50	0.75	0.00	0.50	0.25	-0.143066	0.081055	0.985352	-1.820000	1.820000	0.560000	422.00	-0.274433	-0.091524	8.75	10.00	5.75	8.75	0.50	2.00	0.00	0.50	0.00	0.50	0.50	0.00	0.25	0.00	0.25	0.25	-0.118164	0.172363	0.999512	-1.750000	-3.780000	4.060000	361.00	-0.302475	-0.080637
0.34	10.50	10.00	5.25	8.50	0.75	3.50	0.25	1.00	0.00	0.50	0.50	0.50	0.75	0.25	0.50	0.50	-0.143555	0.085449	0.989258	-1.960000	1.960000	0.700000	412.00	-0.272289	-0.088561	8.50	10.00	5.75	8.75	0.50	2.50	0.00	0.50	0.00	0.50	0.50	0.00	0.25	0.00	0.00	0.25	-0.116699	0.170410	0.998047	-1.680000	-3.780000	3.920000	361.00	-0.304491	-0.084522
0.35	10.25	10.25	5.25	8.75	0.75	3.50	0.25	1.00	0.00	0.50	0.50	0.50	0.75	0.50	0.25	0.50	-0.148438	0.088379	0.988281	-1.820000	1.890000	0.630000	414.00	-0.273100	-0.089693	8.50	9.75	5.75	8.75	0.50	2.50	0.00	0.50	0.00	0.50	0.25	0.25	0.25	0.25	0.00	0.25	-0.125000	0.158691	0.993164	-1.610000	-3.570000	4.060000	361.00	-0.300036	-0.083830
0.36	10.25	11.00	5.25	8.75	1.00	3.75	0.25	1.25	0.00	0.50	0.50	0.50	0.50	0.25	0.25	0.50	-0.143066	0.080078	0.988281	-1.960000	1.890000	0.490000	424.00	-0.276750	-0.092968	8.50	10.00	5.75	8.75	0.25	2.50	0.00	0.50	0.00	0.50	0.50	0.25	0.25	0.25	0.00	0.25	-0.117188	0.163574	1.000977	-1.680000	-3.640000	4.060000	363.00	-0.298451	-0.085524
0.37	10.25	10.25	5.25	8.50	1.00	3.50	0.25	1.25	0.00	0.50	0.50	0.50	0.50	0.25	0.50	0.50	-0.140625	0.082520	0.980469	-1.820000	1.820000	0.560000	416.00	-0.271330	-0.089919	8.50	10.00	6.00	8.75	0.50	2.25	0.00	0.75	0.00	0.50	0.50	0.25	0.25	0.25	0.00	0.25	-0.115234	0.170410	1.004883	-1.470000	-3.570000	3.990000	369.00	-0.295332	-0.084938
0.38	10.25	10.00	5.25	8.50	0.75	3.50	0.25	1.25	0.00	0.50	0.50	0.50	0.25	0.25	0.25	0.25	-0.146484	0.080566	0.987305	-1.820000	1.820000	0.630000	405.00	-0.279639	-0.087989	8.75	10.00	6.25	8.75	0.50	2.00	0.00	0.75	0.00	0.50	0.50	0.25	0.25	0.25	0.25	0.25	-0.117188	0.165039	1.001465	-1.470000	-3.710000	3.920000	373.00	-0.292224	-0.081249
0.39	10.75	10.00	5.25	8.75	0.75	3.50	0.25	1.00	0.00	0.50	0.50	0.50	0.50	0.00	0.25	0.25	-0.140137	0.079590	0.989258	-1.750000	1.960000	0.560000	409.00	-0.284506	-0.087058	8.75	10.00	6.25	8.75	0.25	2.00	0.00	0.50	0.00	0.50	0.50	0.25	0.00	0.00	0.25	0.25	-0.121094	0.171387	0.995605	-1.400000	-3.640000	3.920000	364.00	-0.302369	-0.078568
0.40	10.75	10.25	5.75	8.75	0.75	3.50	0.25	1.25	0.00	0.50	0.50	0.50	0.75	0.00	0.00	0.25	-0.145996	0.081055	0.991699	-1.750000	1.890000	0.560000	419.00	-0.284506	-0.089643	8.75	10.00	6.25	8.25	0.25	2.00	0.00	0.50	0.00	0.50	0.50	0.00	0.25	0.00	0.25	0.25	-0.121094	0.171387	0.995605	-1.400000	-3.640000	3.920000	358.00	-0.303398	-0.077189
0.41	10.25	11.00	5.50	8.75	0.75	4.00	0.25	1.25	0.00	0.50	0.75	0.50	0.75	0.00	0.00	0.50	-0.140625	0.081543	0.988770	-1.680000	1.960000	0.560000	427.00	-0.278966	-0.096983	8.50	10.00	6.75	8.25	0.25	2.00	0.00	0.50	0.00	0.50	0.50	0.00	0.25	0.25	0.25	0.25	-0.119629	0.166016	1.000000	-1.540000	-3.640000	3.990000	363.00	-0.298359	-0.074689
0.42	10.50	10.25	5.25	8.50	0.75	4.00	0.25	1.25	0.00	0.25	0.75	0.50	0.75	0.25	0.25	0.50	-0.142578	0.082031	0.990234	-1.470000	1.820000	0.700000	420.00	-0.273409	-0.094700	8.50	10.00	6.25	8.25	0.25	2.50	0.00	0.50	0.00	0.50	0.50	0.25	0.00	0.00	0.25	0.25	-0.116211	0.163574	0.993652	-1.610000	-3.570000	3.990000	361.00	-0.299844	-0.080441
0.43	10.25	11.00	5.25	8.50	0.75	3.50	0.25	1.25	0.00	0.50	0.50	0.50	0.75	0.00	0.50	0.25	-0.141602	0.078125	0.991699	-1.960000	2.030000	0.490000	418.00	-0.277381	-0.094334	8.50	9.75	6.25	8.75	0.50	2.75	0.00	0.50	0.00	0.50	0.50	0.25	0.25	0.25	0.00	0.25	-0.119141	0.163086	0.996094	-1.610000	-3.710000	3.990000	371.00	-0.295170	-0.082921
0.44	10.50	11.00	5.25	8.75	0.75	2.75	0.50	1.00	0.00	0.25	0.50	0.75	0.50	0.00	0.25	0.50	-0.140137	0.082031	0.987305	-1.890000	1.960000	0.420000	412.00	-0.284016	-0.086423	8.75	10.00	6.25	8.75	0.50	2.50	0.00	0.75	0.00	0.50	0.50	0.25	0.25	0.00	0.25	0.25	-0.122070	0.168457	0.998535	-1.610000	-3.780000	3.990000	377.00	-0.294028	-0.085124
0.45	10.50	10.00	5.25	8.75	0.75	4.00	0.25	1.00	0.00	0.50	0.50	0.75	0.75	0.00	0.00	0.50	-0.137207	0.076172	0.984375	-1.890000	1.890000	0.560000	415.00	-0.279272	-0.094126	8.75	10.00	6.25	8.25	0.50	2.50	0.00	0.50	0.00	0.50	0.50	0.25	0.25	0.00	0.25	0.25	-0.118164	0.167480	0.994629	-1.680000	-3.640000	3.920000	368.00	-0.296777	-0.080322
0.46	10.25	11.00	5.25	8.75	0.75	4.00	0.25	1.25	0.00	0.50	0.50	0.50	0.50	0.00	0.25	0.50	-0.135742	0.084961	0.984863	-1.890000	2.030000	0.560000	422.00	-0.280103	-0.096195	8.75	9.75	6.25	8.25	0.25	2.50	0.00	0.50	0.00	0.50	0.50	0.25	0.25	0.00	0.00	0.25	-0.122070	0.168945	0.989258	-1.610000	-3.640000	3.850000	361.00	-0.301979	-0.080794
0.47	10.50	11.25	5.50	8.50	0.75	4.00	0.25	1.25	0.25	0.25	0.50	0.75	0.75	0.00	0.50	0.25	-0.140625	0.079590	0.991699	-2.030000	2.100000	0.490000	433.00	-0.273682	-0.093983	8.75	9.75	5.75	8.75	0.50	2.25	0.00	0.50	0.00	0.50	0.50	0.25	0.25	0.25	0.00	0.25	-0.121582	0.168945	0.997070	-1.680000	-3.640000	3.850000	363.00	-0.298254	-0.081488
0.48	10.50	11.00	5.25	8.50	0.75	4.00	0.25	1.25	0.00	0.50	0.50	0.75	0.75	0.00	0.50	0.25	-0.139648	0.079102	0.986816	-1.890000	2.030000	0.490000	428.00	-0.273878	-0.096421	8.75	10.00	6.25	8.75	0.50	2.25	0.00	0.50	0.00	0.50	0.50	0.25	0.25	0.25	0.00	0.25	-0.116699	0.158691	0.997559	-1.820000	-3.570000	3.850000	370.00	-0.298475	-0.079614
0.49	10.50	11.00	5.25	8.50	0.75	3.50	0.25	1.25	0.00	0.25	0.50	0.75	0.75	0.00	0.25	0.50	-0.140625	0.082031	0.987793	-1.750000	2.030000	0.560000	419.00	-0.280270	-0.095964	8.75	9.75	6.25	8.25	0.50	2.00	0.00	0.50	0.00	0.50	0.50	0.25	0.00	0.00	0.00	0.25	-0.114746	0.172363	0.995605	-1.750000	-3.640000	3.920000	357.00	-0.305461	-0.074982
0.50	10.25	11.00	5.25	8.25	0.75	3.75	0.25	1.00	0.00	0.50	0.50	0.50	0.75	0.00	0.25	0.25	-0.140137	0.083496	0.987793	-1.750000	1.890000	0.560000	412.00	-0.282809	-0.092179	8.75	9.75	6.00	8.75	0.25	2.25	0.00	0.50	0.00	0.50	0.50	0.25	0.00	0.25	0.00	0.25	-0.117188	0.171387	0.996582	-1.750000	-3.640000	3.990000	361.00	-0.301808	-0.079174
0.51	10.00	10.25	5.25	8.50	0.75	4.00	0.25	1.00	0.00	0.50	0.50	0.50	0.75	0.00	0.25	0.50	-0.139648	0.083496	0.983887	-1.890000	1.820000	0.490000	410.00	-0.277325	-0.094784	8.50	9.75	6.00	8.75	0.50	2.25	0.00	0.50	0.00	0.50	0.50	0.25	0.00	0.25	0.00	0.25	-0.118164	0.157227	0.999512	-1.750000	-3.710000	4.060000	361.00	-0.299915	-0.079429
0.52	10.00	10.00	5.25	8.50	0.75	4.00	0.25	1.00	0.00	0.50	0.50	0.50	0.75	0.00	0.00	0.50	-0.137695	0.079590	0.990723	-1.820000	1.890000	0.630000	405.00	-0.280680	-0.094489	8.50	9.75	6.00	8.75	0.25	2.50	0.00	0.50	0.00	0.50	0.50	0.25	0.25	0.25	0.00	0.25	-0.118652	0.164062	0.995605	-1.750000	-3.710000	3.850000	363.00	-0.297533	-0.083828
0.53	10.00	10.00	5.25	8.75	0.75	3.75	0.25	1.25	0.00	0.50	0.75	0.50	0.75	0.00	0.25	0.25	-0.137695	0.079590	0.990723	-1.820000	1.890000	0.630000	412.00	-0.274207	-0.096102	8.50	10.00	6.75	8.75	0.50	2.00	0.00	0.50	0.00	0.50	0.25	0.25	0.25	0.25	0.25	0.25	-0.125000	0.166992	0.998535	-1.680000	-3.710000	3.850000	370.00	-0.297120	-0.076974
0.54	10.00	10.00	5.25	8.75	0.75	4.00	0.25	1.25	0.00	0.25	0.50	0.50	0.75	0.00	0.25	0.50	-0.144043	0.074707	0.988281	-1.680000	1.820000	0.560000	411.00	-0.277429	-0.098641	8.50	10.00	6.75	8.75	0.50	2.50	0.00	0.50	0.00	0.50	0.25	0.25	0.25	0.25	0.25	0.25	-0.125977	0.165039	0.993652	-1.610000	-3.780000	3.990000	375.00	-0.295200	-0.079571
0.55	10.00	10.25	5.25	8.50	0.75	4.00	0.25	1.00	0.00	0.50	0.50	0.50	0.75	0.00	0.25	0.25	-0.142578	0.075684	0.988770	-1.890000	1.890000	0.490000	409.00	-0.279276	-0.094116	8.75	9.75	7.00	9.25	0.50	2.50	0.00	0.75	0.00	0.50	0.25	0.25	0.25	0.00	0.25	0.25	-0.120117	0.165039	0.999023	-1.540000	-3.710000	3.920000	385.00	-0.295940	-0.082840
0.56	10.00	10.00	5.25	8.50	0.75	4.00	0.25	1.25	0.00	0.50	0.50	0.50	0.75	0.00	0.50	0.25	-0.139648	0.080566	0.992188	-1.890000	1.890000	0.560000	412.00	-0.272304	-0.096188	8.75	10.00	7.00	9.25	0.50	2.75	0.00	0.75	0.00	0.50	0.50	0.25	0.25	0.00	0.25	0.25	-0.121582	0.167480	0.992188	-1.540000	-3.640000	3.850000	392.00	-0.292486	-0.084696
0.57	10.00	10.00	5.25	8.50	0.75	4.00	0.25	1.25	0.00	0.50	0.50	0.50	0.75	0.00	0.25	0.25	-0.140625	0.078125	0.994629	-1.820000	1.890000	0.630000	410.00	-0.276306	-0.096271	8.75	10.00	6.25	8.75	0.75	3.00	0.00	0.75	0.00	0.50	0.50	0.00	0.25	0.25	0.00	0.25	-0.120605	0.160645	0.995605	-1.540000	-3.710000	3.920000	381.00	-0.295076	-0.083950
0.58	9.50	10.00	5.25	8.50	0.50	4.00	0.25	1.25	0.00	0.50	0.50	0.75	0.75	0.25	0.00	0.25	-0.145996	0.082520	0.988770	-1.960000	2.030000	0.560000	405.00	-0.273616	-0.099599	8.75	10.00	6.25	8.75	0.25	3.00	0.00	0.75	0.00	0.50	0.50	0.25	0.00	0.00	0.00	0.25	-0.121094	0.168457	0.998535	-1.540000	-3.710000	3.990000	375.00	-0.300262	-0.086614
0.59	10.00	10.00	5.25	8.50	0.50	4.00	0.25	1.25	0.00	0.50	0.50	0.50	0.50	0.00	0.00	0.25	-0.138672	0.080566	0.981445	-1.820000	1.960000	0.560000	403.00	-0.283548	-0.095529	8.75	10.00	6.25	8.75	0.00	2.75	0.00	0.50	0.00	0.50	0.50	0.50	0.00	0.00	0.00	0.25	-0.117676	0.166016	0.993164	-1.680000	-3.710000	3.990000	369.00	-0.301832	-0.084854
0.60	10.50	10.00	5.25	8.50	0.75	4.00	0.25	1.00	0.00	0.50	0.50	0.50	0.75	0.00	0.25	0.25	-0.142090	0.083008	0.988281	-1.750000	1.960000	0.630000	411.00	-0.280001	-0.091410	8.75	10.00	6.25	8.75	0.25	2.00	0.00	0.50	0.00	0.50	0.50	0.25	0.25	0.25	0.00	0.25	-0.121094	0.164551	0.999023	-1.680000	-3.640000	4.060000	365.00	-0.300662	-0.079266
0.61	10.25	10.00	5.25	8.50	0.75	4.00	0.25	1.25	0.00	0.50	0.50	0.50	0.75	0.00	0.25	0.50	-0.141602	0.081055	0.988281	-1.750000	1.960000	0.630000	414.00	-0.275110	-0.095752	8.75	10.00	6.25	8.75	0.50	2.00	0.00	0.50	0.00	0.50	0.50	0.25	0.25	0.00	0.00	0.25	-0.123535	0.163574	0.997559	-1.610000	-3.710000	3.990000	366.00	-0.303266	-0.079673
0.62	10.00	9.75	5.25	8.75	0.75	3.50	0.25	1.25	0.00	0.25	0.50	0.50	0.75	0.25	0.25	0.50	-0.145020	0.081543	0.990723	-1.750000	1.820000	0.630000	406.00	-0.274924	-0.094828	8.50	10.00	6.00	8.75	0.50	2.25	0.00	0.50	0.00	0.50	0.25	0.25	0.00	0.25	0.00	0.25	-0.122070	0.163086	1.000488	-1.540000	-3.640000	3.990000	361.00	-0.304085	-0.079693
0.63	10.00	10.00	5.25	8.75	0.50	3.50	0.25	1.25	0.00	0.50	0.50	0.50	0.75	0.00	0.25	0.50	-0.141113	0.086914	0.989258	-1.540000	1.680000	0.630000	406.00	-0.276871	-0.096543	8.75	10.00	6.00	8.75	0.50	2.50	0.00	0.50	0.00	0.50	0.25	0.50	0.25	0.25	0.00	0.25	-0.115234	0.160156	0.988770	-1.610000	-3.570000	3.920000	370.00	-0.297800	-0.083252
0.64	10.25	10.00	5.50	8.75	0.75	3.75	0.25	1.25	0.25	0.50	0.25	0.50	0.50	0.00	0.25	0.25	-0.142090	0.086914	0.992676	-1.680000	1.750000	0.630000	413.00	-0.278983	-0.089109	8.50	10.00	6.25	8.75	0.50	2.50	0.00	0.50	0.00	0.50	0.50	0.25	0.25	0.25	0.00	0.25	-0.115234	0.160156	0.988770	-1.610000	-3.570000	3.920000	370.00	-0.296821	-0.082118
0.65	10.25	10.00	5.25	8.75	0.75	4.00	0.25	1.25	0.00	0.50	0.50	0.50	0.75	0.00	0.25	0.25	-0.143555	0.079102	0.987793	-1.680000	1.960000	0.560000	415.00	-0.277099	-0.095878	8.50	9.75	6.25	8.25	0.50	2.00	0.00	0.50	0.00	0.50	0.50	0.25	0.25	0.00	0.25	0.25	-0.118164	0.167480	0.995605	-1.610000	-3.640000	3.990000	359.00	-0.297375	-0.078395
0.66	10.00	10.00	5.25	8.75	1.00	3.75	0.25	1.00	0.00	0.50	0.50	0.50	0.75	0.00	0.25	0.25	-0.144043	0.078125	0.984375	-1.680000	2.030000	0.560000	409.00	-0.278447	-0.092505	8.75	9.75	6.25	8.25	0.25	2.00	0.00	0.50	0.00	0.50	0.50	0.25	0.25	0.25	0.00	0.25	-0.118652	0.166016	0.992676	-1.540000	-3.570000	3.990000	358.00	-0.300163	-0.076715
0.67	10.00	10.25	5.25	8.75	0.75	4.00	0.25	1.25	0.00	0.50	0.50	0.50	0.50	0.25	0.25	0.25	-0.136230	0.087402	0.985840	-1.960000	2.030000	0.490000	414.00	-0.275986	-0.094356	8.75	9.75	6.00	8.25	0.50	2.25	0.00	0.50	0.00	0.50	0.50	0.25	0.00	0.25	0.00	0.25	-0.121582	0.165039	0.995117	-1.610000	-3.640000	3.920000	358.00	-0.300771	-0.076150
0.68	10.00	10.25	5.25	8.50	1.00	4.00	0.25	1.25	0.00	0.50	0.50	0.50	0.50	0.25	0.25	0.25	-0.141602	0.079102	0.987305	-1.820000	1.960000	0.560000	414.00	-0.275003	-0.092623	8.75	10.50	5.75	8.25	0.50	2.25	0.00	0.50	0.00	0.50	0.50	0.25	0.25	0.25	0.00	0.25	-0.121582	0.165039	0.995117	-1.610000	-3.640000	3.920000	364.00	-0.300454	-0.080981
0.69	10.00	10.25	5.25	8.75	1.00	4.00	0.25	1.25	0.00	0.50	0.50	0.50	0.75	0.25	0.25	0.25	-0.141602	0.079102	0.987305	-1.820000	1.960000	0.560000	419.00	-0.272964	-0.095171	8.75	10.50	5.75	8.25	0.50	2.50	0.00	0.50	0.00	0.50	0.50	0.25	0.25	0.25	0.00	0.25	-0.118164	0.162598	0.992188	-1.610000	-3.640000	3.920000	367.00	-0.299448	-0.082283
0.70	10.00	10.25	5.50	8.75	0.75	4.00	0.25	1.25	0.00	0.50	0.50	0.50	0.50	0.25	0.50	0.50	-0.143555	0.082031	0.986816	-1.680000	2.100000	0.490000	421.00	-0.270111	-0.093822	8.75	10.00	5.75	8.25	0.25	2.25	0.00	0.50	0.00	0.50	0.50	0.25	0.00	0.50	0.25	0.25	-0.122559	0.167480	0.997070	-1.610000	-3.640000	3.920000	360.00	-0.294303	-0.077473
0.71	10.00	10.00	5.50	8.50	0.75	3.75	0.25	1.25	0.00	0.50	0.50	0.50	0.75	0.25	0.25	0.25	-0.140137	0.078125	0.989746	-1.750000	2.100000	0.490000	412.00	-0.273723	-0.092756	8.75	10.00	6.00	8.25	0.25	2.00	0.00	0.50	0.00	0.50	0.50	0.25	0.00	0.25	0.00	0.25	-0.119629	0.159180	0.997070	-1.610000	-3.710000	3.920000	356.00	-0.303736	-0.076277
0.72	9.50	10.00	5.50	8.50	0.75	4.00	0.25	1.25	0.00	0.50	0.50	0.50	1.00	0.00	0.25	0.25	-0.142578	0.079102	0.988770	-1.820000	1.960000	0.490000	410.00	-0.272601	-0.099263	8.75	10.00	6.00	8.25	0.50	2.00	0.00	0.25	0.00	0.50	0.50	0.25	0.00	0.00	0.00	0.25	-0.117188	0.162109	0.994141	-1.680000	-3.710000	3.920000	353.00	-0.309304	-0.073592
0.73	10.00	9.75	5.25	8.50	1.00	4.00	0.25	1.25	0.00	0.50	0.75	0.75	0.75	0.00	0.25	0.25	-0.141602	0.080566	0.984863	-1.820000	1.890000	0.630000	415.00	-0.268962	-0.096235	8.75	10.00	6.00	8.25	0.50	2.00	0.00	0.50	0.00	0.50	0.50	0.25	0.25	0.25	0.00	0.25	-0.113281	0.166016	0.998535	-1.610000	-3.780000	4.060000	360.00	-0.299871	-0.077452
0.74	10.00	9.75	5.25	8.50	1.00	4.00	0.25	1.25	0.00	0.50	0.50	0.75	0.75	0.25	0.25	0.25	-0.139648	0.081543	0.987305	-1.750000	1.960000	0.630000	415.00	-0.268610	-0.094831	8.50	9.75	5.75	8.25	0.25	2.25	0.00	0.50	0.00	0.50	0.50	0.25	0.25	0.25	0.00	0.25	-0.119141	0.170898	1.000977	-1.610000	-3.780000	4.060000	353.00	-0.298931	-0.081743
0.75	10.75	9.75	5.50	8.75	0.75	4.00	0.25	1.25	0.00	0.25	0.50	0.50	0.50	0.25	0.25	0.25	-0.136230	0.083496	0.987305	-1.820000	1.890000	0.630000	418.00	-0.279612	-0.089955	8.50	9.75	5.75	8.25	0.25	2.00	0.00	0.50	0.00	0.50	0.50	0.00	0.00	0.25	0.00	0.25	-0.117188	0.169434	0.996582	-1.540000	-3.780000	3.990000	346.00	-0.306228	-0.076689
0.76	10.75	10.00	5.50	8.75	0.75	4.00	0.25	1.25	0.00	0.50	0.50	0.50	0.75	0.00	0.50	0.25	-0.145508	0.087402	0.995117	-2.030000	2.030000	0.420000	424.00	-0.274545	-0.092403	8.50	9.75	5.75	8.75	0.25	2.00	0.00	0.50	0.00	0.50	0.50	0.25	0.00	0.25	0.00	0.25	-0.121094	0.168457	0.999512	-1.610000	-3.850000	3.920000	354.00	-0.302443	-0.080286
0.77	10.25	10.00	5.50	8.50	0.75	4.00	0.25	1.25	0.00	0.50	0.50	0.50	0.75	0.25	0.50	0.50	-0.145020	0.081543	0.990234	-2.100000	2.170000	0.350000	420.00	-0.267939	-0.093282	8.50	9.75	5.75	8.75	0.25	2.50	0.00	0.50	0.00	0.50	0.50	0.25	0.00	0.25	0.00	0.25	-0.121582	0.163574	0.993652	-1.610000	-3.780000	4.060000	358.00	-0.300358	-0.082959
0.78	10.25	9.75	5.25	8.25	0.75	4.00	0.25	1.25	0.00	0.50	0.75	0.50	0.75	0.00	0.25	0.25	-0.146973	0.080078	0.984375	-1.890000	2.030000	0.490000	410.00	-0.273318	-0.094056	8.75	9.75	5.75	8.25	0.25	2.25	0.00	0.50	0.00	0.50	0.50	0.25	0.25	0.25	0.00	0.25	-0.116211	0.165527	0.996094	-1.540000	-3.710000	3.990000	355.00	-0.299627	-0.080473
0.79	10.25	10.00	5.25	8.25	0.75	3.75	0.25	1.00	0.00	0.50	0.50	0.50	0.50	0.00	0.25	0.25	-0.143066	0.082031	0.985352	-1.610000	1.960000	0.560000	402.00	-0.282248	-0.088796	8.75	9.75	5.75	8.75	0.50	2.50	0.00	0.50	0.00	0.50	0.25	0.25	0.25	0.00	0.00	0.25	-0.117676	0.165039	1.003906	-1.540000	-3.640000	3.990000	361.00	-0.304567	-0.083980
0.80	10.25	10.00	5.25	8.25	0.75	3.75	0.25	1.00	0.00	0.50	0.50	0.50	0.50	0.00	0.00	0.25	-0.142578	0.082031	0.985840	-1.820000	1.890000	0.630000	399.00	-0.286416	-0.088835	8.75	10.00	5.75	8.75	0.25	2.00	0.00	0.50	0.00	0.50	0.50	0.25	0.25	0.25	0.25	0.25	-0.117188	0.162598	0.999023	-1.610000	-3.780000	3.990000	362.00	-0.296442	-0.081660
0.81	10.00	9.75	5.25	8.25	1.00	3.50	0.25	1.00	0.00	0.50	0.50	0.75	0.75	0.00	0.00	0.50	-0.143555	0.077637	0.988770	-1.890000	2.030000	0.560000	401.00	-0.277593	-0.091314	8.50	10.00	5.75	8.25	0.25	2.00	0.00	0.50	0.00	0.50	0.50	0.25	0.25	0.25	0.25	0.25	-0.121582	0.162598	0.995117	-1.540000	-3.710000	3.990000	355.00	-0.295854	-0.080907
0.82	10.00	10.00	5.25	8.75	1.00	3.00	0.25	1.25	0.00	0.50	0.50	0.50	0.75	0.00	0.25	0.50	-0.145020	0.085449	0.984863	-1.680000	1.960000	0.560000	406.00	-0.276524	-0.092432	8.50	9.75	5.75	8.25	0.25	2.25	0.00	0.50	0.00	0.50	0.50	0.25	0.25	0.25	0.00	0.25	-0.121582	0.163086	0.997559	-1.540000	-3.850000	4.060000	353.00	-0.298931	-0.081743
0.83	10.00	10.25	5.25	8.75	1.00	3.00	0.25	1.25	0.00	0.50	0.50	0.50	0.75	0.00	0.25	0.50	-0.140137	0.084961	0.983398	-1.890000	1.890000	0.490000	408.00	-0.277246	-0.092812	8.75	9.75	6.00	8.75	0.25	2.25	0.00	0.50	0.00	0.50	0.50	0.25	0.00	0.25	0.00	0.25	-0.122559	0.168457	0.996094	-1.540000	-3.780000	3.990000	361.00	-0.301808	-0.079174
0.84	10.25	10.25	5.25	8.50	0.75	3.00	0.25	1.25	0.00	0.50	0.50	0.50	0.50	0.25	0.25	0.50	-0.143555	0.079590	0.986328	-1.750000	1.960000	0.490000	406.00	-0.277734	-0.088657	8.75	9.75	6.00	8.75	0.50	2.25	0.00	0.50	0.00	0.50	0.50	0.25	0.00	0.25	0.25	0.25	-0.119141	0.166016	0.997070	-1.680000	-3.780000	3.990000	366.00	-0.295918	-0.078229
0.85	10.00	10.00	5.50	8.50	0.75	4.00	0.25	1.25	0.00	0.50	0.50	0.75	0.75	0.00	0.50	0.25	-0.143555	0.079590	0.986328	-1.750000	1.960000	0.490000	417.00	-0.269477	-0.096206	8.75	10.00	5.75	8.25	0.25	2.50	0.00	0.50	0.00	0.50	0.50	0.50	0.00	0.25	0.25	0.25	-0.122070	0.164062	1.000000	-1.680000	-3.640000	3.990000	363.00	-0.293782	-0.081636
0.86	9.50	10.00	5.50	8.75	1.00	4.00	0.25	1.25	0.00	0.50	0.50	0.75	0.75	0.00	0.50	0.25	-0.143555	0.080078	0.991699	-1.820000	2.030000	0.560000	418.00	-0.267201	-0.098357	8.50	10.00	5.75	8.25	0.50	2.75	0.00	0.50	0.00	0.50	0.50	0.25	0.00	0.25	0.00	0.25	-0.122070	0.163086	0.999023	-1.610000	-3.640000	3.990000	361.00	-0.298974	-0.081775
0.87	9.50	10.25	5.25	8.50	1.00	4.00	0.25	1.25	0.00	0.50	0.50	0.50	0.75	0.00	0.50	0.50	-0.144043	0.083008	0.986816	-1.750000	2.030000	0.490000	413.00	-0.268733	-0.098592	8.50	9.75	5.50	8.75	0.50	2.25	0.00	0.50	0.00	0.50	0.50	0.25	0.00	0.00	0.00	0.25	-0.121094	0.165039	1.003906	-1.610000	-3.640000	3.990000	354.00	-0.304341	-0.083280
0.88	10.25	10.25	5.25	8.50	0.75	3.50	0.25	1.25	0.00	0.50	0.50	0.50	0.50	0.00	0.50	0.50	-0.143066	0.078613	0.986816	-1.680000	2.030000	0.630000	411.00	-0.275470	-0.092114	9.00	9.75	6.00	8.75	0.50	2.25	0.00	0.25	0.00	0.50	0.50	0.25	0.00	0.25	0.00	0.25	-0.122559	0.164062	0.994629	-1.750000	-3.710000	3.990000	362.00	-0.304026	-0.073972
0.89	10.25	10.00	5.25	8.50	0.75	4.25	0.25	1.00	0.00	0.50	0.50	0.50	0.50	0.00	0.50	0.25	-0.145508	0.080078	0.982422	-1.890000	1.890000	0.630000	412.00	-0.276666	-0.091811	9.00	9.75	6.25	8.75	0.50	2.25	0.00	0.50	0.00	0.50	0.50	0.25	0.00	0.25	0.00	0.25	-0.116211	0.164551	0.995605	-1.960000	-3.640000	4.130000	368.00	-0.301006	-0.075840
0.90	9.50	10.00	5.25	8.50	0.75	4.25	0.25	1.00	0.00	0.50	0.50	0.50	0.75	0.00	0.50	0.25	-0.146484	0.081055	0.992676	-1.750000	2.030000	0.560000	407.00	-0.272266	-0.097129	8.75	10.00	6.00	8.75	0.50	2.00	0.00	0.50	0.00	0.50	0.50	0.25	0.00	0.00	0.00	0.25	-0.121094	0.162109	1.003906	-2.170000	-3.710000	3.990000	361.00	-0.306143	-0.078758
0.91	10.00	10.00	5.25	8.25	0.75	4.00	0.25	1.25	0.00	0.50	0.50	0.50	0.75	0.00	0.50	0.50	-0.145996	0.084961	0.984375	-1.680000	1.960000	0.560000	411.00	-0.270287	-0.096063	8.75	10.00	5.75	8.75	0.50	2.25	0.00	0.50	0.00	0.50	0.50	0.25	0.25	0.25	0.25	0.25	-0.124512	0.163086	0.999512	-1.960000	-3.430000	4.130000	367.00	-0.294296	-0.081978
0.92	10.00	9.75	5.25	8.50	0.75	4.00	0.25	1.25	0.00	0.50	0.50	0.75	0.75	0.00	0.50	0.25	-0.137207	0.081055	0.982910	-1.820000	1.890000	0.630000	413.00	-0.268751	-0.096997	8.75	10.00	5.75	8.75	0.50	2.50	0.00	0.50	0.00	0.50	0.25	0.25	0.25	0.25	0.25	0.25	-0.124512	0.163086	0.999512	-1.960000	-3.430000	4.130000	367.00	-0.296723	-0.083049
0.93	9.50	9.75	5.25	8.75	1.00	4.00	0.25	1.00	0.00	0.50	0.50	0.50	0.75	0.00	0.50	0.25	-0.141602	0.078125	0.993164	-1.610000	1.890000	0.700000	407.00	-0.271440	-0.095508	8.75	10.00	5.75	8.25	0.50	2.25	0.00	0.50	0.00	0.50	0.50	0.25	0.25	0.25	0.25	0.25	-0.122559	0.168945	1.000488	-1.750000	-3.430000	3.990000	362.00	-0.294389	-0.079999
0.94	9.50	9.75	5.25	8.75	0.75	4.00	0.25	1.00	0.00	0.25	0.50	0.25	0.50	0.00	0.50	0.50	-0.140625	0.081543	0.983398	-1.890000	2.170000	0.490000	399.00	-0.278544	-0.095087	8.75	10.00	5.75	8.25	0.50	2.25	0.00	0.50	0.00	0.50	0.50	0.25	0.00	0.25	0.00	0.25	-0.122070	0.164551	0.999512	-1.820000	-3.570000	4.060000	358.00	-0.301704	-0.077859
0.95	10.00	9.75	5.25	8.75	0.75	4.00	0.25	1.00	0.00	0.25	0.50	0.25	0.50	0.00	0.25	0.50	-0.139648	0.074219	0.991211	-1.960000	2.100000	0.490000	401.00	-0.284142	-0.092759	8.75	9.75	5.75	8.25	0.25	2.50	0.00	0.50	0.00	0.50	0.50	0.25	0.00	0.25	0.00	0.25	-0.123535	0.166992	0.992676	-1.820000	-3.570000	4.060000	356.00	-0.301224	-0.079682
0.96	10.00	9.75	5.25	8.75	0.75	4.00	0.25	1.00	0.00	0.50	0.50	0.50	0.75	0.00	0.25	0.50	-0.144531	0.078613	0.988770	-1.820000	2.030000	0.630000	408.00	-0.275951	-0.094848	8.75	9.75	5.50	8.25	0.25	2.25	0.00	0.50	0.00	0.50	0.50	0.25	0.25	0.50	0.25	0.25	-0.123535	0.166992	0.992676	-1.820000	-3.570000	4.060000	357.00	-0.291199	-0.080287
0.97	9.50	9.75	5.25	8.50	0.75	4.00	0.25	1.00	0.00	0.50	0.75	0.50	0.75	0.00	0.25	0.50	-0.138672	0.082031	0.986328	-1.890000	2.030000	0.490000	403.00	-0.271403	-0.096555	9.00	10.00	5.75	8.25	0.25	2.00	0.00	0.50	0.00	0.50	0.50	0.50	0.25	0.50	0.25	0.25	-0.122070	0.165039	0.997559	-1.820000	-3.570000	4.060000	364.00	-0.290106	-0.078476
0.98	10.00	9.75	5.50	8.25	0.75	4.00	0.25	1.00	0.00	0.50	0.50	0.75	0.75	0.00	0.50	0.25	-0.141602	0.082520	0.989258	-2.030000	2.030000	0.490000	409.00	-0.270793	-0.092546	9.00	10.00	5.75	8.75	0.25	2.25	0.00	0.50	0.00	0.50	0.50	0.50	0.25	0.25	0.25	0.25	-0.119141	0.164551	0.991699	-1.610000	-3.850000	3.990000	370.00	-0.292854	-0.083124
0.99	10.25	9.75	5.25	8.25	0.75	4.00	0.25	1.00	0.00	0.50	0.50	0.50	0.75	0.00	0.50	0.50	-0.142090	0.080078	0.984863	-1.960000	1.960000	0.490000	408.00	-0.272503	-0.091991	8.75	9.75	5.50	8.75	0.25	2.50	0.00	0.50	0.00	0.50	0.50	0.25	0.00	0.25	0.25	0.25	-0.115723	0.165527	0.995605	-1.960000	-3.570000	4.060000	361.00	-0.296546	-0.082914
1.00	10.00	9.75	5.25	8.25	0.75	3.75	0.25	1.00	0.00	0.50	0.50	0.50	0.50	0.00	0.50	0.50	-0.145996	0.083496	0.983398	-1.610000	2.030000	0.490000	401.00	-0.274674	-0.090216	8.75	9.75	5.50	8.75	0.25	2.50	0.00	0.50	0.00	0.50	0.50	0.25	0.00	0.25	0.25	0.25	-0.123535	0.157227	1.000000	-2.030000	-3.710000	4.130000	361.00	-0.296546	-0.082914
1.01	9.50	10.00	5.25	8.50	1.00	3.75	0.25	1.00	0.00	0.50	0.50	0.50	0.50	0.00	0.50	0.25	-0.140137	0.081543	0.987793	-1.820000	1.960000	0.560000	402.00	-0.275023	-0.092157	9.00	10.00	5.75	8.25	0.25	2.50	0.00	0.50	0.00	0.50	0.50	0.25	0.00	0.25	0.00	0.25	-0.116699	0.162598	0.996582	-1.820000	-3.640000	4.060000	360.00	-0.302569	-0.078949
1.02	9.50	10.00	5.25	8.50	0.75	3.00	0.25	1.00	0.00	0.50	0.50	0.50	0.75	0.00	0.50	0.25	-0.141602	0.079590	0.989746	-1.820000	1.960000	0.560000	394.00	-0.276054	-0.091583	9.00	10.00	6.00	8.25	0.50	2.50	0.00	0.50	0.00	0.50	0.50	0.50	0.00	0.25	0.00	0.25	-0.113281	0.166504	0.992188	-1.820000	-3.570000	4.060000	368.00	-0.297743	-0.078245
1.03	9.50	10.00	5.25	8.25	0.75	4.00	0.25	1.00	0.00	0.50	0.50	0.50	0.75	0.00	0.25	0.25	-0.142578	0.079590	0.989258	-1.680000	1.890000	0.630000	399.00	-0.277027	-0.095321	9.00	10.00	6.00	8.25	0.50	2.25	0.00	0.50	0.00	0.50	0.50	0.25	0.00	0.25	0.00	0.25	-0.117188	0.167969	0.996094	-2.100000	-3.500000	3.990000	363.00	-0.302113	-0.075465
1.04	9.50	9.75	5.00	8.25	0.75	4.00	0.25	1.00	0.00	0.25	0.50	0.50	0.50	0.00	0.50	0.50	-0.140625	0.084961	0.988770	-1.820000	1.890000	0.490000	394.00	-0.275524	-0.095857	9.00	10.00	5.75	8.25	0.25	2.50	0.00	0.50	0.00	0.50	0.50	0.25	0.25	0.25	0.00	0.25	-0.117676	0.170898	0.998535	-1.890000	-3.500000	3.920000	362.00	-0.299972	-0.081055
1.05	9.50	9.75	5.00	8.25	0.75	3.75	0.25	0.75	0.00	0.50	0.50	0.50	0.75	0.00	0.50	0.50	-0.136719	0.084961	0.988770	-1.820000	1.890000	0.490000	392.00	-0.273249	-0.093002	8.75	10.00	5.75	8.25	0.25	2.75	0.00	0.50	0.00	0.50	0.50	0.25	0.25	0.00	0.00	0.25	-0.121094	0.166504	0.996094	-1.890000	-3.640000	4.060000	360.00	-0.302133	-0.085027
1.06	10.00	10.00	5.25	8.50	1.00	4.00	0.25	1.00	0.00	0.50	0.50	0.75	0.75	0.25	0.25	0.25	-0.142090	0.081543	0.989258	-1.610000	1.960000	0.490000	413.00	-0.271520	-0.092697	8.75	10.00	5.50	8.25	0.50	2.75	0.00	0.50	0.00	0.50	0.50	0.25	0.25	0.00	0.00	0.25	-0.124512	0.164551	0.998535	-1.890000	-3.710000	4.060000	360.00	-0.301161	-0.085242
1.07	10.00	10.00	5.25	8.50	0.75	4.00	0.25	1.00	0.00	0.50	0.50	0.75	0.75	0.25	0.25	0.25	-0.144043	0.080078	0.992676	-1.750000	1.960000	0.490000	411.00	-0.272414	-0.093638	9.00	9.75	5.50	8.25	0.25	2.50	0.00	0.50	0.00	0.50	0.50	0.25	0.25	0.00	0.00	0.25	-0.125000	0.169922	0.998047	-1.890000	-3.850000	4.060000	356.00	-0.303440	-0.083194
1.08	10.00	10.00	5.25	8.50	0.75	4.00	0.25	1.00	0.00	0.50	0.50	0.50	0.75	0.25	0.50	0.25	-0.141113	0.080078	0.988770	-1.750000	1.890000	0.630000	411.00	-0.271248	-0.092385	9.00	10.00	5.50	8.25	0.25	2.25	0.00	0.50	0.00	0.50	0.50	0.25	0.00	0.25	0.00	0.25	-0.115723	0.167969	0.997070	-1.890000	-3.780000	4.130000	355.00	-0.303889	-0.078799
1.09	10.00	9.75	5.25	8.50	0.75	4.00	0.25	1.25	0.00	0.50	0.50	0.50	0.50	0.00	0.25	0.25	-0.143066	0.085938	0.987793	-1.890000	1.820000	0.560000	406.00	-0.277768	-0.094113	8.75	10.00	6.00	8.75	0.25	2.50	0.00	0.50	0.00	0.50	0.50	0.25	0.25	0.25	0.25	0.25	-0.116699	0.167969	0.995117	-2.030000	-3.710000	4.130000	370.00	-0.294288	-0.083053
1.10	9.50	10.00	5.25	8.50	0.75	4.00	0.25	1.25	0.00	0.50	0.50	0.50	0.25	0.00	0.25	0.25	-0.144043	0.079590	0.991211	-1.750000	1.750000	0.560000	401.00	-0.279237	-0.095059	8.75	10.00	6.00	8.75	0.25	2.75	0.00	0.50	0.00	0.50	0.50	0.25	0.00	0.00	0.25	0.25	-0.111328	0.168457	0.992188	-1.960000	-3.570000	4.060000	368.00	-0.299584	-0.083667
1.11	10.00	9.75	5.25	8.50	1.00	4.00	0.25	1.25	0.00	0.25	0.50	0.50	0.50	0.50	0.25	0.50	-0.141602	0.082520	0.983398	-1.750000	1.820000	0.630000	411.00	-0.271338	-0.092162	8.75	9.75	6.00	8.75	0.25	2.50	0.00	0.50	0.00	0.50	0.50	0.00	0.00	0.00	0.25	0.25	-0.119629	0.162598	0.997559	-2.030000	-3.640000	3.990000	361.00	-0.303314	-0.080470
1.12	10.00	9.50	5.25	8.25	0.50	3.50	0.25	1.25	0.00	0.50	0.50	0.50	0.75	0.00	0.50	0.50	-0.143066	0.080078	0.993164	-1.680000	1.890000	0.700000	399.00	-0.271127	-0.094111	8.75	9.75	6.00	8.25	0.25	2.00	0.00	0.50	0.00	0.50	0.50	0.00	0.00	0.25	0.00	0.25	-0.119629	0.166016	0.999512	-2.170000	-3.430000	3.990000	351.00	-0.306586	-0.074230
1.13	10.00	9.50	5.25	8.50	0.75	4.00	0.25	1.25	0.00	0.50	0.50	0.50	0.75	0.25	0.50	0.50	-0.144531	0.083008	0.991699	-1.610000	1.890000	0.630000	411.00	-0.265653	-0.094832	8.75	9.75	5.75	8.25	0.50	2.25	0.00	0.75	0.00	0.50	0.50	0.00	0.25	0.25	0.00	0.25	-0.122070	0.164062	0.997559	-2.240000	-3.500000	4.200000	359.00	-0.299047	-0.081050
1.14	10.00	10.00	5.25	8.50	0.75	4.00	0.25	1.25	0.00	0.25	0.50	0.50	0.50	0.25	0.50	0.25	-0.145996	0.083984	0.996094	-1.470000	1.820000	0.630000	410.00	-0.274165	-0.094035	8.75	10.00	6.00	8.75	0.25	2.00	0.00	0.75	0.00	0.50	0.50	0.25	0.00	0.25	0.00	0.25	-0.125488	0.164062	1.003906	-2.310000	-3.570000	4.130000	364.00	-0.300730	-0.081338
1.15	9.50	10.00	5.25	8.50	0.75	4.00	0.25	1.25	0.00	0.25	0.50	0.50	0.75	0.00	0.25	0.00	-0.140625	0.080566	0.990723	-1.820000	2.170000	0.420000	402.00	-0.279850	-0.098962	8.75	10.00	6.00	8.75	0.25	2.50	0.00	0.50	0.00	0.50	0.50	0.25	0.00	0.25	0.00	0.25	-0.127441	0.165039	1.000488	-2.380000	-3.430000	4.130000	366.00	-0.301452	-0.080993
1.16	9.50	10.00	5.25	8.50	0.75	4.00	0.25	1.25	0.00	0.50	0.75	0.25	0.75	0.00	0.00	0.25	-0.142578	0.081543	0.987305	-1.960000	2.170000	0.490000	403.00	-0.278835	-0.097689	8.75	10.50	6.00	8.75	0.25	2.75	0.00	0.50	0.00	0.50	0.50	0.25	0.00	0.00	0.00	0.25	-0.115723	0.162598	0.994629	-2.380000	-3.430000	4.060000	370.00	-0.305524	-0.084614
1.17	9.50	9.75	5.25	8.25	0.75	4.00	0.25	1.25	0.00	0.50	0.75	0.50	1.00	0.00	0.25	0.25	-0.136719	0.074707	0.991211	-1.750000	2.030000	0.560000	405.00	-0.268858	-0.099424	8.75	10.50	6.25	8.25	0.50	2.50	0.00	0.50	0.00	0.50	0.50	0.00	0.00	0.25	0.25	0.25	-0.116699	0.162109	0.999023	-2.380000	-3.360000	4.060000	370.00	-0.300213	-0.076475
1.18	9.50	9.75	5.25	8.25	0.75	4.00	0.25	1.25	0.00	0.50	0.50	0.50	0.75	0.25	0.25	0.25	-0.142090	0.079590	0.986328	-1.750000	2.100000	0.560000	403.00	-0.270666	-0.096188	8.75	10.00	6.00	8.25	0.50	2.50	0.00	0.50	0.00	0.50	0.50	0.25	0.00	0.25	0.25	0.25	-0.118652	0.164551	0.998047	-2.590000	-3.290000	4.060000	365.00	-0.295750	-0.078047
1.19	9.50	9.75	5.00	8.00	0.75	3.75	0.25	1.25	0.00	0.50	0.50	0.50	0.50	0.00	0.25	0.50	-0.141602	0.083984	0.985352	-1.890000	2.170000	0.560000	392.00	-0.274971	-0.095648	8.75	10.00	5.75	8.25	0.50	2.50	0.00	0.50	0.00	0.50	0.50	0.25	0.00	0.25	0.25	0.25	-0.120117	0.165039	0.993652	-2.800000	-3.150000	3.920000	363.00	-0.295963	-0.079225
1.20	9.50	9.75	5.00	8.00	0.75	4.00	0.25	1.25	0.00	0.50	0.50	0.50	0.50	0.00	0.25	0.25	-0.138184	0.085938	0.990234	-1.820000	2.030000	0.490000	394.00	-0.276212	-0.096077	8.75	10.00	6.00	8.25	0.50	2.25	0.00	0.75	0.00	0.50	0.50	0.25	0.25	0.25	0.00	0.25	-0.120117	0.165039	0.993652	-2.800000	-3.150000	3.920000	366.00	-0.296137	-0.081766
1.21	9.25	9.75	5.00	8.25	0.75	4.00	0.25	1.00	0.00	0.50	0.75	0.50	0.75	0.00	0.25	0.25	-0.138184	0.085938	0.990234	-1.820000	2.030000	0.490000	395.00	-0.272548	-0.097488	8.75	10.00	6.00	8.75	0.25	2.50	0.00	0.50	0.00	0.50	0.50	0.25	0.00	0.00	0.00	0.25	-0.120117	0.163574	0.999512	-2.870000	-3.010000	3.920000	364.00	-0.305286	-0.082382
1.22	9.25	9.75	5.25	8.50	0.75	3.75	0.25	1.00	0.00	0.50	0.75	0.75	0.75	0.00	0.25	0.25	-0.148926	0.091797	0.988281	-1.750000	2.240000	0.490000	400.00	-0.270436	-0.097198	8.75	10.00	6.00	8.75	0.50	2.50	0.00	0.50	0.00	0.50	0.50	0.25	0.00	0.25	0.00	0.25	-0.121094	0.162109	1.000488	-2.940000	-2.940000	3.990000	368.00	-0.300250	-0.080022
1.23	9.25	9.75	5.25	8.50	0.75	3.50	0.25	1.25	0.00	0.50	0.50	0.50	0.75	0.00	0.25	0.25	-0.141113	0.082031	0.989746	-1.680000	1.960000	0.560000	396.00	-0.274840	-0.097359	8.75	10.00	5.75	8.25	0.50	2.00	0.00	0.75	0.00	0.50	0.50	0.25	0.00	0.00	0.00	0.25	-0.119141	0.164062	0.997559	-3.080000	-3.010000	3.920000	357.00	-0.303834	-0.080954
1.24	9.50	9.50	5.25	8.25	0.75	4.00	0.25	1.25	0.00	0.50	0.50	0.50	0.50	0.00	0.25	0.25	-0.134766	0.087402	0.987793	-1.680000	1.960000	0.420000	396.00	-0.275469	-0.095326	8.75	9.75	5.75	8.25	0.50	1.75	0.00	0.50	0.00	0.50	0.50	0.25	0.00	0.25	0.25	0.25	-0.119141	0.164062	0.997559	-3.080000	-3.010000	3.920000	353.00	-0.298280	-0.074616
1.25	9.50	9.75	5.25	8.25	0.75	4.00	0.25	1.00	0.00	0.50	0.50	0.50	0.75	0.25	0.50	0.25	-0.143555	0.079102	0.995117	-1.610000	1.960000	0.560000	401.00	-0.268826	-0.093544	8.75	9.75	5.75	8.75	0.50	2.00	0.00	0.50	0.00	0.50	0.50	0.25	0.25	0.25	0.25	0.25	-0.119629	0.162598	0.994629	-3.010000	-3.010000	3.920000	363.00	-0.294560	-0.080180
1.26	9.25	9.50	5.25	8.25	1.00	4.00	0.25	1.00	0.00	0.50	0.50	0.50	0.75	0.25	0.50	0.25	-0.144531	0.088867	0.989258	-1.750000	2.030000	0.560000	399.00	-0.266348	-0.093387	8.75	10.00	6.00	8.75	0.50	2.25	0.00	0.25	0.00	0.50	0.50	0.25	0.00	0.00	0.25	0.25	-0.120605	0.160645	0.997070	-2.940000	-3.150000	3.920000	363.00	-0.303153	-0.077111
1.27	9.25	9.50	5.25	8.00	0.75	3.75	0.25	1.00	0.00	0.25	0.50	0.50	0.75	0.00	0.50	0.25	-0.143066	0.083008	0.985840	-1.890000	2.030000	0.560000	388.00	-0.274385	-0.094716	8.75	10.00	6.00	8.75	0.50	2.50	0.00	0.50	0.00	0.50	0.50	0.25	0.00	0.25	0.25	0.25	-0.120117	0.163574	0.999023	-2.870000	-3.220000	3.920000	370.00	-0.295639	-0.080036
1.28	9.25	10.00	5.25	8.00	0.75	3.50	0.25	1.00	0.00	0.25	0.50	0.50	0.75	0.00	0.50	0.25	-0.141602	0.081543	0.986328	-1.890000	2.030000	0.560000	389.00	-0.276704	-0.094350	8.75	10.00	6.00	8.75	0.50	2.50	0.00	0.50	0.00	0.50	0.50	0.25	0.00	0.25	0.00	0.25	-0.118652	0.167969	0.999512	-2.800000	-3.220000	3.920000	368.00	-0.300250	-0.080022
1.29	9.25	10.00	5.25	8.00	0.75	3.75	0.25	1.25	0.00	0.50	0.50	0.50	0.75	0.00	0.50	0.50	-0.146973	0.080078	0.989258	-1.680000	2.100000	0.560000	399.00	-0.268546	-0.097798	8.75	10.00	5.75	8.25	0.25	2.25	0.00	0.50	0.00	0.50	0.50	0.25	0.00	0.25	0.00	0.25	-0.124512	0.163086	0.997559	-2.800000	-3.010000	3.990000	355.00	-0.302950	-0.078842
1.30	10.00	9.75	5.25	8.00	0.75	3.50	0.25	1.25	0.00	0.50	0.50	0.50	0.75	0.00	0.50	0.25	-0.148438	0.082031	0.981445	-1.610000	2.030000	0.630000	400.00	-0.272846	-0.092010	8.75	10.00	5.75	8.75	0.25	2.25	0.00	0.50	0.00	0.50	0.50	0.25	0.00	0.25	0.25	0.25	-0.118652	0.163086	0.995605	-2.800000	-3.220000	3.990000	363.00	-0.298013	-0.080883
1.31	10.00	9.75	5.00	8.00	0.75	3.00	0.25	1.25	0.00	0.50	0.50	0.50	0.75	0.00	0.25	0.50	-0.145508	0.079590	0.984375	-1.540000	1.890000	0.560000	392.00	-0.276600	-0.091661	8.75	10.00	5.75	8.75	0.25	2.50	0.00	0.50	0.00	0.50	0.50	0.25	0.25	0.25	0.00	0.25	-0.119141	0.159180	0.999023	-2.730000	-3.220000	4.060000	365.00	-0.299131	-0.084264
1.32	10.25	9.75	5.00	8.00	0.75	3.75	0.25	1.00	0.00	0.25	0.50	0.50	0.75	0.00	0.25	0.50	-0.146484	0.087891	0.990234	-1.610000	1.750000	0.560000	396.00	-0.280444	-0.092178	8.75	9.75	5.50	8.25	0.25	2.25	0.00	0.50	0.00	0.50	0.50	0.25	0.00	0.25	0.00	0.25	-0.121582	0.160645	0.997070	-2.660000	-3.220000	4.060000	351.00	-0.302541	-0.079542
1.33	10.00	9.75	5.25	8.00	0.75	4.00	0.25	1.00	0.00	0.50	0.50	0.50	0.75	0.00	0.25	0.50	-0.146484	0.082520	0.985840	-1.680000	1.750000	0.560000	401.00	-0.275733	-0.092405	8.75	9.75	6.00	8.25	0.25	2.50	0.00	0.50	0.00	0.50	0.25	0.25	0.00	0.25	0.25	0.25	-0.120605	0.157227	0.999023	-2.590000	-3.360000	4.060000	358.00	-0.299718	-0.078254
1.34	10.25	9.75	5.00	8.25	1.00	4.00	0.25	1.00	0.00	0.50	0.50	0.50	0.75	0.00	0.00	0.50	-0.135742	0.085449	0.986328	-1.610000	1.750000	0.560000	403.00	-0.279776	-0.092302	9.00	9.75	6.00	8.25	0.50	2.25	0.00	0.50	0.00	0.50	0.25	0.25	0.00	0.25	0.25	0.25	-0.123047	0.154785	0.993164	-2.520000	-3.360000	3.990000	361.00	-0.300201	-0.074713
1.35	10.50	9.75	5.00	8.25	1.00	4.00	0.25	1.00	0.00	0.25	0.50	0.50	0.75	0.00	0.25	0.25	-0.140625	0.085938	0.988281	-1.610000	1.750000	0.490000	404.00	-0.281436	-0.091299	9.00	9.75	6.00	8.75	0.50	2.25	0.00	0.50	0.00	0.50	0.50	0.25	0.00	0.25	0.00	0.25	-0.126953	0.163574	1.003418	-2.450000	-3.290000	3.990000	366.00	-0.301254	-0.076992
1.36	10.25	9.50	5.00	8.25	0.75	4.00	0.25	1.00	0.00	0.25	0.50	0.75	0.50	0.00	0.50	0.25	-0.142578	0.077637	0.988770	-1.470000	1.820000	0.490000	400.00	-0.276113	-0.092378	8.75	9.50	6.00	8.75	0.50	2.50	0.00	0.50	0.00	0.50	0.75	0.25	0.00	0.25	0.25	0.25	-0.124512	0.156250	0.997559	-2.170000	-3.430000	3.990000	369.00	-0.290870	-0.079286
1.37	10.25	9.50	5.00	8.00	1.00	4.00	0.25	1.00	0.00	0.25	0.50	0.75	0.50	0.00	0.25	0.50	-0.142578	0.077637	0.988770	-1.470000	1.820000	0.490000	399.00	-0.277234	-0.091331	8.75	10.00	6.25	8.75	0.50	2.25	0.00	0.50	0.00	0.50	0.50	0.25	0.00	0.25	0.25	0.25	-0.126465	0.156738	0.992676	-2.030000	-3.640000	4.060000	371.00	-0.296394	-0.077574
1.38	10.00	10.00	5.00	8.25	0.75	3.75	0.25	1.00	0.00	0.25	0.50	0.50	0.75	0.00	0.50	0.50	-0.144043	0.086426	0.986816	-1.470000	1.680000	0.280000	400.00	-0.276329	-0.094528	8.75	10.00	6.25	8.25	0.50	2.50	0.00	0.50	0.00	0.50	0.50	0.25	0.00	0.25	0.00	0.25	-0.125488	0.157227	0.998535	-2.170000	-3.640000	3.990000	366.00	-0.300181	-0.076852
1.39	9.50	10.00	5.25	8.25	0.75	3.75	0.25	1.00	0.00	0.25	0.25	0.50	0.75	0.00	0.50	0.50	-0.143555	0.084473	0.986328	-1.190000	1.610000	0.280000	396.00	-0.277778	-0.095646	8.75	10.00	6.25	8.25	0.50	2.50	0.00	0.50	0.00	0.50	0.50	0.25	0.00	0.25	0.00	0.25	-0.124023	0.151367	0.998047	-2.100000	-3.500000	3.990000	366.00	-0.300181	-0.076852
1.40	10.25	9.75	5.25	8.50	0.75	3.75	0.25	1.00	0.00	0.50	0.25	0.50	0.75	0.25	0.50	0.50	-0.144531	0.087402	0.983398	-1.540000	1.540000	0.140000	407.00	-0.272976	-0.090272	8.50	10.00	6.25	8.25	0.50	2.00	0.00	0.25	0.00	0.50	0.50	0.25	0.00	0.25	0.00	0.25	-0.124023	0.157227	0.998535	-1.960000	-3.640000	3.990000	355.00	-0.304388	-0.072255
1.41	10.50	9.75	5.00	8.25	0.75	3.50	0.25	1.25	0.00	0.50	0.50	0.50	0.75	0.25	0.50	0.50	-0.145508	0.083984	0.990723	-1.680000	1.610000	0.070000	408.00	-0.269279	-0.091019	8.50	9.75	6.25	8.25	0.50	2.00	0.00	0.25	0.00	0.50	0.50	0.25	0.00	0.25	0.00	0.25	-0.126953	0.155273	1.000977	-1.820000	-3.570000	3.920000	353.00	-0.303718	-0.071694
1.42	10.50	9.75	5.00	8.50	0.75	4.00	0.25	1.25	0.00	0.50	0.50	0.50	0.75	0.25	0.50	0.25	-0.145020	0.082031	0.987305	-1.540000	1.610000	0.210000	414.00	-0.269883	-0.093343	8.75	9.75	6.25	8.25	0.25	2.25	0.00	0.50	0.00	0.50	0.50	0.25	0.00	0.25	0.00	0.25	-0.119629	0.158691	0.997070	-1.680000	-3.710000	3.850000	358.00	-0.301748	-0.075935
1.43	10.00	9.75	5.25	8.50	0.75	4.00	0.25	1.00	0.00	0.50	0.75	0.50	0.75	0.25	0.25	0.25	-0.142090	0.081543	0.993652	-1.540000	1.750000	0.280000	409.00	-0.271596	-0.092203	8.75	9.75	6.25	8.25	0.25	2.25	0.00	0.50	0.00	0.50	0.50	0.25	0.00	0.50	0.25	0.25	-0.124512	0.158691	0.992676	-1.540000	-3.710000	3.990000	363.00	-0.293187	-0.074612
1.44	10.00	9.75	5.25	8.50	0.50	3.75	0.25	1.00	0.00	0.50	0.50	0.50	0.50	0.25	0.00	0.50	-0.145508	0.082031	0.989746	-1.470000	1.680000	0.210000	398.00	-0.280598	-0.090804	8.75	9.75	6.00	8.25	0.50	2.00	0.00	0.50	0.00	0.50	0.25	0.25	0.00	0.25	0.00	0.25	-0.124512	0.157227	0.996582	-1.470000	-3.780000	3.990000	354.00	-0.305383	-0.074496
1.45	10.00	9.75	5.25	8.50	0.75	4.00	0.25	1.00	0.00	0.50	0.50	0.50	0.75	0.00	0.25	0.50	-0.142578	0.083496	0.985352	-1.540000	1.750000	0.280000	406.00	-0.275879	-0.094044	8.75	9.75	6.25	8.25	0.50	2.00	0.00	0.50	0.00	0.50	0.50	0.25	0.00	0.25	0.00	0.25	-0.122559	0.157715	1.001953	-1.400000	-3.710000	3.990000	358.00	-0.301550	-0.073606
1.46	10.00	9.75	5.25	8.50	0.75	4.00	0.25	1.25	0.00	0.50	0.50	0.50	0.75	0.00	0.25	0.50	-0.134766	0.085938	0.977539	-1.190000	1.680000	0.490000	409.00	-0.273639	-0.096574	8.75	9.75	6.25	8.25	0.50	1.75	0.00	0.50	0.00	0.50	0.50	0.25	0.00	0.25	0.00	0.25	-0.117188	0.161621	0.993652	-1.470000	-3.640000	4.060000	356.00	-0.302594	-0.072214
1.47	9.50	9.75	5.00	8.25	0.75	3.75	0.25	1.25	0.00	0.50	0.50	0.50	0.75	0.00	0.00	0.25	-0.141113	0.080566	0.987305	-1.330000	1.610000	0.490000	393.00	-0.279007	-0.097720	9.00	9.75	6.00	8.25	0.50	1.75	0.00	0.75	0.00	0.50	0.50	0.25	0.25	0.50	0.25	0.25	-0.124512	0.153809	0.995605	-1.330000	-3.710000	3.990000	366.00	-0.289667	-0.076063
1.48	9.50	9.75	5.25	8.25	0.75	3.50	0.25	1.25	0.00	0.50	0.75	0.50	0.75	0.00	0.25	0.25	-0.141602	0.083496	0.989258	-1.680000	1.750000	0.490000	398.00	-0.272512	-0.095440	9.00	9.75	5.75	8.25	0.50	1.75	0.00	0.50	0.00	0.50	0.50	0.00	0.25	0.25	0.25	0.25	-0.122559	0.153809	0.996582	-1.330000	-3.710000	3.990000	355.00	-0.299804	-0.074065
1.49	10.00	10.00	5.25	8.50	0.75	4.00	0.25	1.25	0.00	0.50	0.75	0.50	0.75	0.00	0.50	0.25	-0.142578	0.086426	0.982422	-1.540000	1.750000	0.490000	415.00	-0.269427	-0.096302	8.75	9.75	6.00	8.25	0.50	2.00	0.00	0.50	0.00	0.50	0.50	0.25	0.00	0.25	0.00	0.25	-0.122559	0.159668	0.996582	-1.050000	-3.640000	4.060000	356.00	-0.301809	-0.074775
1.50	10.25	10.00	5.25	8.50	0.75	4.00	0.25	1.25	0.00	0.50	0.50	0.75	0.75	0.25	0.25	0.50	-0.139648	0.081543	0.984863	-1.260000	1.680000	0.560000	418.00	-0.269100	-0.095629	8.75	9.75	6.00	8.25	0.50	2.00	0.00	0.50	0.00	0.50	0.50	0.25	0.00	0.25	0.25	0.25	-0.121582	0.161621	0.994629	-0.910000	-3.850000	3.920000	358.00	-0.297032	-0.074825
1.51	10.00	9.75	5.25	8.50	0.75	4.00	0.25	1.25	0.00	0.50	0.75	0.50	0.75	0.00	0.25	0.25	-0.144043	0.080566	0.987793	-1.330000	1.470000	0.630000	410.00	-0.272655	-0.096027	8.50	9.75	6.00	8.25	0.25	1.75	0.00	0.50	0.00	0.50	0.50	0.25	0.00	0.25	0.25	0.25	-0.121094	0.160156	0.994629	-0.910000	-3.710000	3.990000	351.00	-0.298570	-0.075634
1.52	10.00	9.75	5.00	8.50	0.75	4.00	0.25	1.25	0.00	0.50	0.75	0.50	0.75	0.25	0.25	0.25	-0.136719	0.086914	0.994141	-1.260000	1.540000	0.630000	410.00	-0.269434	-0.095877	8.50	9.50	6.00	8.25	0.25	1.75	0.00	0.50	0.00	0.50	0.25	0.25	0.00	0.25	0.25	0.25	-0.118652	0.158203	0.997559	-1.050000	-3.500000	4.060000	346.00	-0.301476	-0.074806
1.53	10.00	9.75	5.25	8.50	0.75	4.00	0.25	1.25	0.00	0.50	0.50	0.50	0.75	0.50	0.50	0.25	-0.136719	0.086914	0.994141	-1.260000	1.540000	0.630000	414.00	-0.265112	-0.093251	8.75	10.00	6.00	8.25	0.25	2.50	0.00	0.50	0.00	0.50	0.50	0.25	0.00	0.25	0.00	0.25	-0.124023	0.162109	1.001465	-0.980000	-3.850000	3.990000	361.00	-0.301645	-0.078990
1.54	10.00	9.75	5.00	8.50	0.75	4.00	0.25	1.25	0.00	0.50	0.50	0.75	0.75	0.25	0.50	0.25	-0.145020	0.086426	0.988770	-1.330000	1.540000	0.700000	412.00	-0.265543	-0.096850	8.75	10.00	6.00	8.25	0.50	2.25	0.00	0.50	0.00	0.50	0.50	0.25	0.00	0.25	0.25	0.25	-0.124023	0.156250	0.995117	-0.910000	-3.780000	3.920000	363.00	-0.296733	-0.076712
1.55	10.00	10.00	5.00	8.50	0.75	4.00	0.25	1.25	0.00	0.50	0.75	0.50	0.75	0.25	0.50	0.25	-0.143066	0.082031	0.992188	-1.190000	1.470000	0.700000	414.00	-0.266236	-0.096155	8.75	9.75	5.75	8.25	0.50	1.75	0.00	0.50	0.00	0.50	0.25	0.25	0.25	0.25	0.00	0.25	-0.123535	0.156250	0.997070	-0.840000	-3.850000	3.990000	350.00	-0.304060	-0.076484
1.56	10.00	10.00	5.25	8.50	0.50	4.00	0.25	1.25	0.00	0.50	0.50	0.50	0.75	0.25	0.25	0.25	-0.144043	0.086914	0.988281	-1.190000	1.400000	0.700000	409.00	-0.273947	-0.095931	8.75	9.75	5.75	8.25	0.50	1.75	0.00	0.50	0.00	0.50	0.50	0.25	0.25	0.25	0.00	0.25	-0.122070	0.164062	0.994629	-0.840000	-3.710000	3.850000	353.00	-0.300464	-0.076751
1.57	9.50	10.25	5.25	8.50	0.50	4.00	0.25	1.25	0.00	0.50	0.50	0.50	0.75	0.25	0.25	0.25	-0.144043	0.085938	0.985352	-1.330000	1.470000	0.700000	407.00	-0.273179	-0.098678	8.75	9.75	5.50	8.25	0.50	1.75	0.00	0.50	0.00	0.50	0.50	0.00	0.00	0.25	0.00	0.25	-0.118164	0.158691	0.989258	-0.840000	-3.640000	3.920000	346.00	-0.306988	-0.074231
1.58	9.50	10.00	5.25	8.50	0.75	4.00	0.25	1.25	0.00	0.50	0.50	0.50	0.75	0.25	0.25	0.50	-0.142090	0.078613	0.986816	-1.540000	1.470000	0.700000	408.00	-0.269592	-0.098003	8.50	9.75	5.00	7.75	0.50	1.75	0.00	0.25	0.00	0.50	0.50	0.00	0.00	0.25	0.00	0.25	-0.124023	0.156250	0.994141	-0.980000	-3.710000	3.920000	330.00	-0.310339	-0.072438
1.59	9.50	10.00	5.25	8.50	0.75	4.00	0.25	1.25	0.00	0.50	0.50	0.50	0.75	0.00	0.25	0.25	-0.143555	0.088379	0.985840	-1.400000	1.400000	0.770000	405.00	-0.274822	-0.098667	8.50	9.50	5.50	7.75	0.50	1.75	0.00	0.50	0.00	0.50	0.25	0.25	0.25	0.00	0.00	0.25	-0.125000	0.162109	0.987793	-1.190000	-3.710000	3.920000	337.00	-0.307353	-0.077746
1.60	10.00	10.00	5.25	8.75	0.75	4.25	0.25	1.25	0.00	0.50	0.50	0.50	0.75	0.25	0.50	0.25	-0.140625	0.083496	0.984863	-1.470000	1.470000	0.770000	419.00	-0.268493	-0.096732	8.50	9.50	5.75	7.75	0.50	2.00	0.00	0.50	0.00	0.50	0.50	0.25	0.25	0.25	0.00	0.25	-0.121094	0.160156	0.996094	-1.260000	-3.570000	3.780000	346.00	-0.298174	-0.076739
1.61	10.25	10.00	5.50	8.75	0.75	4.25	0.25	1.25	0.00	0.50	0.50	0.50	0.75	0.25	0.25	0.50	-0.141113	0.083496	0.985840	-1.330000	1.330000	0.910000	423.00	-0.271229	-0.095181	8.50	9.75	6.00	7.75	0.50	2.00	0.00	0.50	0.00	0.50	0.50	0.25	0.00	0.25	0.00	0.25	-0.120117	0.154297	0.994141	-1.260000	-3.570000	3.850000	349.00	-0.301324	-0.073861
1.62	10.25	10.00	5.50	8.75	1.00	4.00	0.25	1.25	0.00	0.50	0.50	0.75	0.75	0.00	0.25	0.50	-0.143066	0.084961	0.993652	-1.610000	1.470000	0.770000	424.00	-0.271477	-0.095609	8.50	9.75	6.25	7.75	0.25	1.75	0.00	0.50	0.00	0.50	0.50	0.25	0.00	0.25	0.00	0.25	-0.125977	0.158203	1.002441	-1.260000	-3.640000	3.850000	346.00	-0.303408	-0.072208
1.63	10.25	10.25	5.25	8.75	1.00	4.00	0.25	1.25	0.00	0.25	0.50	0.75	0.75	0.00	0.25	0.25	-0.147461	0.082031	0.980469	-1.610000	1.540000	0.770000	419.00	-0.277027	-0.097344	8.75	9.50	5.75	8.25	0.25	1.75	0.00	0.75	0.00	0.50	0.50	0.50	0.00	0.00	0.00	0.25	-0.124512	0.159668	0.992676	-1.120000	-3.570000	3.780000	350.00	-0.301299	-0.081066
1.64	10.00	10.25	5.25	8.75	0.75	4.00	0.25	1.25	0.00	0.50	0.50	0.75	0.50	0.25	0.50	0.50	-0.145020	0.092285	0.992676	-1.540000	1.470000	0.980000	421.00	-0.267389	-0.096091	8.50	9.50	5.75	7.75	0.50	2.00	0.00	0.50	0.00	0.50	0.50	0.25	0.25	0.25	0.25	0.25	-0.123047	0.154297	0.993652	-1.470000	-3.430000	3.850000	348.00	-0.293284	-0.076777
1.65	10.00	10.00	5.25	8.75	0.75	4.00	0.25	1.25	0.00	0.50	0.50	0.75	0.50	0.00	0.50	0.25	-0.141113	0.087402	0.987793	-1.400000	1.400000	0.980000	415.00	-0.271718	-0.096369	8.25	9.75	5.75	7.75	0.25	1.75	0.00	0.50	0.00	0.50	0.50	0.25	0.25	0.00	0.25	0.25	-0.127441	0.153809	0.995117	-1.260000	-3.500000	3.850000	341.00	-0.299587	-0.079660
1.66	10.00	10.00	5.25	8.75	0.75	4.25	0.25	1.25	0.00	0.50	0.50	1.00	0.75	0.00	0.50	0.50	-0.136719	0.085938	0.981445	-1.750000	1.750000	0.840000	423.00	-0.264332	-0.100902	8.50	9.50	6.25	7.75	0.25	1.75	0.00	0.50	0.00	0.50	0.50	0.25	0.00	0.00	0.25	0.25	-0.119141	0.165039	0.996582	-1.330000	-3.500000	3.850000	344.00	-0.301793	-0.073120
1.67	10.00	11.00	5.25	8.75	0.75	4.00	0.25	1.25	0.00	0.50	0.50	0.75	0.50	0.00	0.25	0.50	-0.141113	0.083984	0.990234	-1.820000	1.820000	0.910000	423.00	-0.276617	-0.098482	8.50	9.50	6.00	7.75	0.50	2.00	0.00	0.50	0.00	0.50	0.50	0.25	0.00	0.25	0.25	0.25	-0.125977	0.162598	0.999512	-1.330000	-3.710000	3.990000	349.00	-0.295725	-0.073362
1.68	10.00	11.00	5.25	8.75	0.75	4.00	0.25	1.25	0.00	0.50	0.50	0.50	0.75	0.00	0.25	0.50	-0.144043	0.090332	0.989746	-1.680000	1.750000	1.050000	422.00	-0.277288	-0.099072	8.50	9.50	5.75	7.75	0.50	1.75	0.00	0.50	0.00	0.50	0.25	0.25	0.00	0.25	0.25	0.25	-0.125000	0.161621	1.002930	-1.540000	-3.710000	3.920000	341.00	-0.300654	-0.072826
1.69	10.25	11.00	5.25	8.75	0.75	4.00	0.25	1.25	0.00	0.25	0.50	0.50	0.75	0.00	0.25	0.50	-0.138672	0.081055	0.986816	-2.030000	1.680000	1.120000	422.00	-0.280913	-0.098824	8.50	9.50	5.50	7.75	0.50	1.75	0.00	0.50	0.00	0.50	0.25	0.25	0.00	0.25	0.00	0.25	-0.125488	0.158203	1.000977	-1.400000	-3.710000	3.990000	336.00	-0.306001	-0.073989
1.70	10.25	10.25	5.50	8.75	0.75	4.00	0.25	1.25	0.00	0.25	0.50	0.75	0.75	0.00	0.50	0.50	-0.145996	0.087402	0.991699	-2.170000	1.820000	1.120000	423.00	-0.272071	-0.097711	8.50	9.25	5.75	7.75	0.25	2.25	0.00	0.50	0.00	0.50	0.50	0.25	0.00	0.25	0.00	0.25	-0.118652	0.159180	1.000000	-1.330000	-3.570000	3.920000	342.00	-0.300379	-0.076385
1.71	10.25	10.25	5.50	8.75	0.75	4.00	0.25	1.25	0.00	0.50	0.50	0.50	0.75	0.00	0.50	0.25	-0.145996	0.086914	0.989258	-1.960000	1.750000	1.120000	422.00	-0.273809	-0.095030	8.50	9.25	5.75	7.75	0.00	2.00	0.00	0.50	0.00	0.50	0.50	0.50	0.00	0.25	0.00	0.25	-0.124023	0.160645	0.997559	-1.330000	-3.640000	3.990000	339.00	-0.299135	-0.077523
1.72	10.25	11.00	5.50	8.75	1.00	4.00	0.25	1.25	0.00	0.25	0.50	0.25	0.75	0.00	0.50	0.25	-0.142578	0.081543	0.992188	-1.960000	1.890000	1.190000	426.00	-0.280660	-0.094914	8.25	9.50	5.75	7.75	0.25	1.50	0.00	0.50	0.00	0.50	0.50	0.50	0.25	0.25	0.00	0.25	-0.124512	0.163574	1.001953	-1.330000	-3.640000	4.060000	338.00	-0.297247	-0.077739
1.73	10.25	11.00	5.25	8.75	0.75	4.00	0.25	1.25	0.00	0.25	0.25	0.25	0.75	0.00	0.25	0.25	-0.140625	0.081543	0.984375	-1.540000	1.750000	1.190000	416.00	-0.288599	-0.096940	8.25	9.50	5.75	7.75	0.25	1.75	0.00	0.50	0.00	0.50	0.50	0.25	0.25	0.25	0.25	0.25	-0.117676	0.163574	0.998047	-1.190000	-3.780000	3.850000	341.00	-0.294786	-0.077652
1.74	10.50	10.25	5.25	8.75	0.75	4.00	0.25	1.25	0.00	0.50	0.50	0.50	0.75	0.00	0.25	0.25	-0.137207	0.086426	0.989258	-1.400000	1.680000	1.190000	419.00	-0.278513	-0.095075	8.25	9.25	5.50	7.75	0.50	1.75	0.00	0.50	0.00	0.50	0.50	0.25	0.25	0.25	0.25	0.25	-0.130859	0.158203	1.001465	-0.910000	-3.780000	3.990000	339.00	-0.292994	-0.077330
1.75	10.50	11.00	5.50	8.75	0.75	4.25	0.25	1.25	0.00	0.50	0.50	0.50	0.75	0.00	0.25	0.25	-0.143066	0.081543	0.997070	-1.260000	1.610000	1.050000	431.00	-0.279732	-0.096052	8.25	9.25	5.50	7.75	0.25	1.75	0.00	0.50	0.00	0.50	0.50	0.25	0.00	0.00	0.25	0.25	-0.123535	0.156738	0.999023	-0.420000	-3.990000	4.060000	332.00	-0.301180	-0.077570
1.76	10.25	11.25	5.25	9.00	0.75	4.00	0.25	1.25	0.00	0.50	0.50	0.50	0.75	0.00	0.25	0.25	-0.136719	0.085449	0.990234	-0.980000	1.260000	1.050000	428.00	-0.280594	-0.098363	8.25	9.25	5.75	7.25	0.25	1.50	0.00	0.50	0.00	0.50	0.50	0.25	0.00	0.25	0.00	0.25	-0.123535	0.159668	0.997070	-0.210000	-4.060000	4.060000	327.00	-0.303212	-0.070962
1.77	11.00	11.00	5.50	9.00	0.75	4.00	0.25	1.25	0.00	0.25	0.50	0.50	0.75	0.00	0.25	0.25	-0.140137	0.079102	0.980957	-0.910000	1.050000	1.050000	433.00	-0.284719	-0.094420	8.00	9.25	5.50	7.75	0.25	1.75	0.00	0.50	0.00	0.50	0.50	0.25	0.00	0.25	0.25	0.25	-0.123535	0.159668	0.997070	-0.210000	-4.060000	4.060000	332.00	-0.296253	-0.077398
1.78	11.00	11.50	5.75	9.00	0.75	4.00	0.25	1.25	0.00	0.25	0.25	0.50	0.75	0.00	0.25	0.25	-0.136719	0.082031	0.990234	-0.420000	0.630000	0.980000	437.00	-0.288672	-0.093921	8.25	9.25	5.00	7.75	0.50	1.75	0.00	0.50	0.00	0.50	0.50	0.25	0.00	0.25	0.25	0.25	-0.129395	0.159180	1.000488	-0.280000	-3.990000	3.990000	332.00	-0.296197	-0.077584
1.79	10.75	11.50	5.50	9.00	1.00	4.00	0.25	1.25	0.25	0.00	0.50	0.50	0.75	0.00	0.25	0.25	-0.137695	0.076660	0.988281	0.070000	0.280000	1.120000	438.00	-0.283586	-0.093655	8.25	9.25	5.00	7.75	0.50	1.75	0.00	0.50	0.00	0.50	0.50	0.25	0.00	0.25	0.25	0.25	-0.124512	0.161133	0.994141	-0.700000	-3.640000	3.920000	332.00	-0.296197	-0.077584
1.80	11.00	11.50	5.50	9.00	0.75	4.00	0.25	1.25	0.00	0.25	0.50	0.50	0.75	0.00	0.25	0.50	-0.138184	0.086914	0.992676	0.070000	0.140000	1.120000	438.00	-0.284148	-0.095733	8.25	9.25	5.00	7.75	0.50	1.75	0.00	0.50	0.00	0.50	0.50	0.25	0.00	0.50	0.25	0.25	-0.123047	0.160645	0.994141	-0.770000	-3.640000	3.850000	334.00	-0.292050	-0.076091
1.81	11.25	11.50	5.75	9.00	0.75	4.00	0.25	1.25	0.00	0.25	0.25	0.50	0.75	0.00	0.25	0.25	-0.136719	0.073242	0.990723	0.280000	0.140000	1.050000	440.00	-0.289289	-0.092829	8.25	9.25	5.00	7.75	0.25	1.75	0.00	0.50	0.00	0.50	0.50	0.25	0.00	0.25	0.25	0.25	-0.124512	0.162598	0.995117	-0.700000	-3.570000	3.990000	329.00	-0.297501	-0.078644
1.82	11.00	11.75	5.75	8.75	0.75	4.00	0.25	1.50	0.00	0.50	0.25	0.50	0.75	0.00	0.25	0.25	-0.141113	0.080566	0.996094	1.190000	-0.350000	1.050000	443.00	-0.284275	-0.095013	8.25	9.25	5.00	7.25	0.25	1.50	0.00	0.50	0.00	0.50	0.50	0.50	0.00	0.25	0.25	0.25	-0.122559	0.160156	1.003418	-0.840000	-3.570000	3.920000	324.00	-0.294996	-0.076504
1.83	11.00	11.75	5.50	8.75	0.75	4.25	0.25	1.50	0.00	0.25	0.50	0.75	0.75	0.00	0.25	0.50	-0.135254	0.079590	0.995605	1.820000	-0.700000	0.840000	446.00	-0.279234	-0.099712	8.25	9.25	5.50	7.25	0.25	1.50	0.00	0.50	0.00	0.50	0.50	0.25	0.00	0.25	0.25	0.25	-0.123047	0.161133	1.000000	-0.420000	-3.500000	3.920000	327.00	-0.298258	-0.072296
1.84	11.25	11.75	5.50	8.75	1.00	4.25	0.25	1.25	0.00	0.50	0.50	0.50	0.75	0.00	0.50	0.25	-0.136230	0.090820	0.987305	2.240000	-1.050000	0.840000	449.00	-0.279055	-0.092842	8.25	9.25	5.00	7.25	0.25	1.50	0.00	0.50	0.00	0.50	0.50	0.25	0.25	0.00	0.00	0.25	-0.125977	0.166016	1.000977	0.070000	-3.570000	3.920000	319.00	-0.305543	-0.078765
1.85	11.00	11.75	5.50	8.75	1.00	4.00	0.25	1.50	0.00	0.50	0.50	0.50	0.75	0.00	0.50	0.25	-0.140137	0.082031	0.993164	2.730000	-1.400000	0.840000	448.00	-0.277031	-0.095230	8.00	9.00	5.50	7.25	0.25	1.75	0.00	0.50	0.00	0.50	0.25	0.25	0.25	0.25	0.00	0.25	-0.125488	0.166016	0.995117	0.210000	-3.500000	3.850000	322.00	-0.301875	-0.076577
1.86	11.25	12.00	5.50	8.75	0.75	4.25	0.25	1.50	0.00	0.50	0.50	0.50	0.75	0.00	0.25	0.25	-0.139160	0.084961	0.994629	3.500000	-2.170000	0.630000	450.00	-0.282181	-0.096415	8.00	9.00	5.00	7.00	0.25	1.75	0.00	0.50	0.00	0.50	0.50	0.25	0.25	0.25	0.00	0.25	-0.121094	0.161621	0.998535	0.070000	-3.290000	3.780000	317.00	-0.298586	-0.078374
1.87	11.50	12.50	5.75	8.75	0.75	4.25	0.25	1.50	0.00	0.50	0.50	0.50	0.75	0.00	0.25	0.25	-0.135742	0.083496	0.993652	4.480000	-2.940000	0.630000	459.00	-0.283948	-0.094962	8.00	8.50	5.00	7.00	0.25	1.50	0.00	0.25	0.00	0.50	0.50	0.00	0.00	0.25	0.00	0.25	-0.119629	0.168945	0.995605	-0.210000	-3.010000	3.640000	302.00	-0.308584	-0.067680
1.88	11.50	12.50	5.75	8.75	0.75	4.25	0.25	1.25	0.00	0.50	0.50	0.50	0.75	0.00	0.25	0.25	-0.135742	0.094727	0.992676	6.510000	-4.340000	0.770000	455.00	-0.286022	-0.092695	7.50	8.50	4.75	7.00	0.25	1.25	0.00	0.25	0.00	0.50	0.25	0.25	0.25	0.00	0.00	0.25	-0.125000	0.165527	0.998535	-0.490000	-2.940000	3.430000	292.00	-0.310412	-0.075972
1.89	11.50	12.75	6.00	9.00	0.50	4.25	0.25	1.25	0.00	0.50	0.50	0.50	0.75	0.00	0.25	0.25	-0.135742	0.094727	0.992676	6.510000	-4.340000	0.770000	460.00	-0.287392	-0.093583	7.50	8.25	4.75	6.75	0.25	1.00	0.00	0.25	0.00	0.50	0.25	0.25	0.00	0.00	0.00	0.25	-0.127441	0.166016	0.996094	-0.490000	-2.870000	3.500000	283.00	-0.314589	-0.069541
1.90	11.50	12.75	6.00	9.00	0.75	4.25	0.25	1.25	0.00	0.50	0.50	0.50	0.75	0.00	0.00	0.50	-0.129883	0.089844	0.997070	7.350000	-4.900000	0.770000	461.00	-0.288391	-0.093395	7.50	8.25	4.75	6.75	0.25	1.25	0.00	0.25	0.00	0.50	0.25	0.00	0.00	0.00	0.00	0.25	-0.125488	0.164062	1.002441	-0.280000	-3.080000	3.500000	283.00	-0.317625	-0.069401
1.91	11.50	13.00	6.25	9.50	0.75	4.25	0.25	1.25	0.00	0.50	0.50	0.50	0.75	0.00	0.00	0.25	-0.132812	0.090820	0.996094	10.290000	-6.510000	1.050000	470.00	-0.290558	-0.093547	7.50	8.00	4.50	6.25	0.25	1.00	0.00	0.25	0.00	0.50	0.25	0.25	0.00	0.00	0.00	0.25	-0.126953	0.160645	1.002930	-0.070000	-3.080000	3.430000	274.00	-0.314757	-0.067433
1.92	12.00	13.00	6.25	9.50	0.50	4.25	0.25	1.50	0.00	0.00	0.50	0.50	0.75	0.00	0.25	0.25	-0.125977	0.097168	1.001465	11.690000	-7.140000	1.260000	473.00	-0.292297	-0.096061	7.50	7.75	4.50	6.25	0.50	1.25	0.00	0.25	0.00	0.25	0.25	0.25	0.00	0.00	0.00	0.25	-0.124023	0.156250	0.998535	0.560000	-3.290000	3.360000	274.00	-0.315581	-0.068499
1.93	12.25	13.50	6.25	9.50	0.50	4.25	0.25	1.50	0.00	0.00	0.50	0.50	0.75	0.00	0.25	0.25	-0.128906	0.102539	0.988770	12.180000	-7.140000	1.400000	480.00	-0.293937	-0.095665	7.50	7.75	4.25	6.25	0.25	1.00	0.00	0.25	0.00	0.25	0.25	0.00	0.00	0.00	0.00	0.25	-0.124512	0.163086	1.002930	0.910000	-3.430000	3.360000	264.00	-0.324206	-0.067258
1.94	12.00	13.75	6.25	9.50	0.50	4.25	0.25	1.25	0.00	0.00	0.25	0.50	0.75	0.00	0.00	0.50	-0.129883	0.111816	0.986328	12.110000	-7.000000	1.540000	472.00	-0.300497	-0.095366	7.50	7.75	4.25	6.25	0.00	0.75	0.00	0.25	0.00	0.25	0.25	0.00	0.00	0.00	0.00	0.25	-0.129883	0.150879	0.998535	1.190000	-3.640000	3.220000	259.00	-0.327782	-0.066531
1.95	12.00	13.75	6.25	9.50	0.75	4.25	0.25	1.25	0.00	0.00	0.25	0.50	0.75	0.00	0.00	0.25	-0.122559	0.115723	0.980957	11.830000	-6.790000	1.750000	474.00	-0.301312	-0.093961	7.25	7.25	4.25	6.00	0.00	0.50	0.00	0.25	0.00	0.25	0.50	0.00	0.00	0.00	0.00	0.25	-0.127930	0.167969	0.999023	1.680000	-3.990000	3.430000	250.00	-0.322420	-0.063346
1.96	12.00	14.00	6.25	9.50	0.75	4.25	0.25	1.25	0.00	0.00	0.50	0.75	0.75	0.00	0.25	0.25	-0.125000	0.114258	0.988281	10.990000	-6.370000	1.960000	483.00	-0.293106	-0.095332	7.25	6.75	4.25	6.00	0.00	1.00	0.00	0.25	0.00	0.25	0.25	0.00	0.00	0.00	0.00	0.25	-0.130371	0.166016	0.999023	2.170000	-3.990000	3.290000	248.00	-0.322698	-0.065294
1.97	12.00	14.00	6.75	10.50	0.50	4.25	0.25	1.25	0.00	0.25	0.50	0.75	0.75	0.00	0.25	0.25	-0.128418	0.106934	0.997070	11.340000	-6.720000	2.100000	498.00	-0.291009	-0.096080	7.25	6.75	4.25	5.75	0.00	0.75	0.00	0.25	0.00	0.25	0.00	0.00	0.00	0.00	0.00	0.25	-0.128418	0.168457	0.996582	2.520000	-4.200000	3.220000	241.00	-0.330270	-0.060988
1.98	12.50	14.00	7.00	10.75	0.50	4.25	0.25	1.25	0.00	0.25	0.50	0.50	0.75	0.00	0.25	0.50	-0.126953	0.115234	0.995605	11.480000	-7.000000	1.820000	507.00	-0.292690	-0.093454	7.25	6.50	4.00	5.75	0.00	0.50	0.00	0.25	0.00	0.25	0.00	0.00	0.00	0.00	0.00	0.25	-0.122559	0.170410	0.991699	2.380000	-4.270000	3.220000	234.00	-0.332094	-0.059429
1.99	12.50	14.25	7.00	10.75	0.50	4.25	0.25	1.25	0.00	0.00	0.50	0.50	0.75	0.00	0.25	0.50	-0.117676	0.120605	0.979004	10.990000	-6.790000	2.170000	506.00	-0.295710	-0.094495	7.00	6.50	3.50	5.50	0.25	0.50	0.00	0.25	0.00	0.25	0.25	0.00	0.00	0.00	0.00	0.25	-0.121094	0.166504	0.993164	1.680000	-3.780000	3.010000	229.00	-0.325225	-0.061939
2.00	13.00	14.25	7.00	10.75	0.75	4.25	0.25	1.25	0.00	0.00	0.50	0.50	0.75	0.25	0.00	0.50	-0.120117	0.113770	0.991211	10.710000	-6.650000	2.240000	513.00	-0.296482	-0.090878	7.00	6.25	3.00	5.50	0.25	0.25	0.00	0.25	0.00	0.25	0.50	0.00	0.00	0.00	0.00	0.25	-0.121094	0.166504	0.993164	1.680000	-3.780000	3.010000	222.00	-0.321722	-0.062648
2.01	13.00	14.50	7.00	10.75	0.50	4.50	0.25	1.25	0.00	0.25	0.50	0.50	0.75	0.25	0.25	0.25	-0.120117	0.118164	1.003906	11.410000	-6.930000	2.170000	519.00	-0.292951	-0.091508	6.25	6.00	3.00	5.00	0.00	0.00	0.00	0.25	0.00	0.25	0.50	0.00	0.00	0.00	0.00	0.25	-0.122070	0.168457	0.983398	1.330000	-3.500000	3.010000	202.00	-0.323235	-0.062523
2.02	12.75	14.25	7.00	11.00	0.50	4.50	0.25	1.25	0.00	0.00	0.50	0.50	0.75	0.00	0.25	0.25	-0.113281	0.121582	0.984375	10.990000	-6.790000	1.960000	512.00	-0.297071	-0.094527	5.50	5.75	2.75	4.75	0.00	0.25	0.00	0.25	0.00	0.25	0.25	0.00	0.00	0.00	0.00	0.25	-0.126953	0.168945	0.984863	0.700000	-3.220000	2.870000	188.00	-0.325150	-0.069829
2.03	13.00	14.50	7.00	11.00	0.50	4.25	0.25	1.25	0.00	0.00	0.50	0.75	0.75	0.00	0.25	0.25	-0.114258	0.120605	0.993164	10.570000	-6.650000	2.030000	517.00	-0.296377	-0.093967	5.50	5.75	2.50	4.75	0.00	0.25	0.00	0.25	0.00	0.25	0.25	0.00	0.00	0.00	0.00	0.25	-0.127930	0.168945	0.992676	-0.350000	-2.590000	2.660000	186.00	-0.325971	-0.072018
2.04	13.00	14.50	7.00	10.75	0.75	4.50	0.25	1.25	0.00	0.00	0.50	0.75	0.75	0.00	0.25	0.00	-0.114258	0.121582	0.981934	10.920000	-7.210000	1.750000	518.00	-0.296483	-0.092910	5.25	5.75	2.25	4.50	0.00	0.25	0.00	0.25	0.00	0.25	0.00	0.00	0.00	0.00	0.00	0.25	-0.127930	0.168945	0.992676	-0.350000	-2.590000	2.660000	176.00	-0.333871	-0.074017
2.05	13.00	14.75	7.00	10.75	0.50	4.50	0.25	1.25	0.00	0.00	0.50	0.75	0.75	0.00	0.25	0.00	-0.114258	0.121582	0.981934	10.920000	-7.210000	1.750000	518.00	-0.297802	-0.093956	5.25	5.50	2.00	3.50	0.00	0.00	0.00	0.00	0.00	0.25	0.00	0.00	0.00	0.00	0.00	0.25	-0.133789	0.163086	1.002441	0.280000	-3.220000	2.590000	155.00	-0.346985	-0.055386
2.06	13.00	14.75	7.75	11.00	0.50	4.25	0.25	1.25	0.00	0.00	0.50	0.75	1.00	0.25	0.25	0.25	-0.107910	0.133789	0.973145	10.150000	-7.000000	1.680000	530.00	-0.292048	-0.091990	5.25	5.00	2.25	3.50	0.00	0.00	0.00	0.00	0.00	0.00	0.25	0.00	0.00	0.00	0.00	0.00	-0.130371	0.160156	1.003906	1.120000	-3.850000	2.590000	152.00	-0.349665	-0.050595
2.07	13.00	14.75	7.75	11.00	0.50	4.25	0.25	1.25	0.00	0.00	0.25	0.50	0.75	0.00	0.25	0.25	-0.103027	0.135742	0.974121	10.010000	-5.810000	1.610000	522.00	-0.301145	-0.090535	4.75	4.75	2.00	3.50	0.00	0.00	0.00	0.25	0.00	0.00	0.00	0.00	0.00	0.00	0.00	0.00	-0.134277	0.167480	0.999023	1.820000	-4.410000	2.590000	144.00	-0.349837	-0.063786
2.08	13.25	14.50	7.25	11.25	0.75	4.50	0.25	1.25	0.00	0.00	0.50	0.75	0.75	0.00	0.25	0.25	-0.104492	0.129883	0.975098	5.110000	-4.340000	1.260000	529.00	-0.295176	-0.092900	4.25	4.50	1.75	3.50	0.00	0.25	0.00	0.25	0.00	0.00	0.00	0.00	0.00	0.00	0.00	0.25	-0.130859	0.177246	1.004883	2.660000	-5.250000	2.590000	138.00	-0.338570	-0.076981
2.09	13.50	15.00	7.75	11.25	0.75	4.50	0.25	1.50	0.00	0.00	0.25	0.50	0.75	0.00	0.00	0.25	-0.090820	0.131836	0.961426	5.250000	-3.850000	1.540000	537.00	-0.302238	-0.091823	4.00	4.50	1.50	3.00	0.00	0.00	0.00	0.00	0.00	0.00	0.00	0.00	0.00	0.00	0.00	0.25	-0.133301	0.166992	1.010254	3.780000	-6.090000	2.450000	122.00	-0.353986	-0.065056
2.10	13.75	15.25	7.75	11.25	0.50	4.25	0.25	1.25	0.00	0.00	0.25	0.50	0.75	0.00	0.00	0.25	-0.099609	0.135254	0.973145	2.590000	-2.870000	1.190000	533.00	-0.306563	-0.089146	3.75	4.25	1.75	3.00	0.00	0.00	0.00	0.25	0.00	0.00	0.00	0.00	0.00	0.00	0.00	0.25	-0.143555	0.165527	1.017578	5.600000	-7.490000	2.380000	124.00	-0.340571	-0.072647
2.11	13.75	15.50	7.75	11.50	0.50	4.25	0.25	1.50	0.00	0.00	0.50	0.50	0.75	0.00	0.25	0.25	-0.102051	0.149902	0.967285	0.560000	-1.680000	0.910000	546.00	-0.299536	-0.092080	3.75	4.00	2.00	3.00	0.00	0.00	0.00	0.00	0.00	0.00	0.00	0.00	0.00	0.00	0.00	0.00	-0.140137	0.165527	1.019043	7.840000	-9.240000	2.240000	120.00	-0.354484	-0.055763
2.12	13.75	15.50	8.00	11.50	0.50	4.50	0.25	1.50	0.00	0.00	0.50	0.50	0.75	0.00	0.25	0.25	-0.104004	0.134766	0.987305	-0.630000	-0.560000	0.980000	551.00	-0.298713	-0.092056	3.75	4.00	1.25	2.50	0.00	0.00	0.00	0.00	0.00	0.00	0.00	0.00	0.00	0.00	0.00	0.00	-0.133301	0.159668	1.018066	10.080000	-11.060000	1.820000	107.00	-0.363995	-0.058215
2.13	14.00	15.25	8.00	11.50	0.75	4.50	0.25	1.25	0.00	0.00	0.25	0.50	0.50	0.00	0.25	0.25	-0.104980	0.131348	0.986328	-1.540000	-0.070000	0.770000	546.00	-0.303748	-0.086831	3.75	4.00	1.00	2.50	0.00	0.00	0.00	0.00	0.00	0.00	0.00	0.00	0.00	0.00	0.00	0.00	-0.126465	0.147461	1.014648	11.480000	-12.530000	0.980000	104.00	-0.366405	-0.061820
2.14	13.75	15.25	8.00	11.25	0.75	4.50	0.25	1.25	0.00	0.00	0.00	0.50	0.50	0.00	0.50	0.00	-0.100098	0.140137	0.976074	-2.170000	0.490000	0.490000	540.00	-0.304092	-0.086373	3.50	3.75	0.75	2.50	0.00	0.00	0.00	0.00	0.00	0.00	0.00	0.00	0.00	0.00	0.00	0.00	-0.127930	0.153809	1.005371	12.600000	-13.650000	-0.140000	97.00	-0.367065	-0.067674
2.15	14.00	15.25	8.25	11.50	0.75	4.50	0.25	1.25	0.00	0.00	0.25	0.50	0.75	0.25	0.25	0.25	-0.094727	0.143555	0.963379	-3.080000	1.610000	0.490000	552.00	-0.299332	-0.086435	3.50	3.75	0.75	2.50	0.00	0.00	0.00	0.00	0.00	0.00	0.00	0.00	0.00	0.00	0.00	0.00	-0.113770	0.147949	1.004395	13.300000	-14.770000	-1.540000	97.00	-0.367065	-0.067674
2.16	14.00	15.25	8.00	11.50	0.50	4.50	0.25	1.50	0.00	0.00	0.50	0.50	0.75	0.00	0.00	0.25	-0.095703	0.131836	0.980469	-4.760000	3.290000	0.280000	549.00	-0.301817	-0.090949	3.50	3.75	0.75	2.50	0.00	0.00	0.00	0.00	0.00	0.00	0.00	0.00	0.00	0.00	0.00	0.00	-0.109863	0.140625	1.021973	13.510000	-16.170000	-3.780000	97.00	-0.367065	-0.067674
2.17	14.00	15.50	8.00	11.50	0.50	4.50	0.25	1.25	0.00	0.00	0.50	0.50	0.75	0.00	0.25	0.25	-0.097168	0.132324	0.974121	-6.440000	4.270000	0.070000	550.00	-0.300974	-0.089297	3.50	3.75	0.75	2.50	0.00	0.00	0.00	0.00	0.00	0.00	0.00	0.00	0.00	0.00	0.00	0.00	-0.105469	0.101074	1.023926	13.440001	-18.410000	-7.210000	97.00	-0.367065	-0.067674
2.18	14.00	15.50	8.00	11.50	0.75	4.50	0.25	1.50	0.00	0.00	0.50	0.75	0.75	0.00	0.25	0.25	-0.101074	0.130859	0.986328	-7.350000	5.040000	0.000000	558.00	-0.296181	-0.091394	3.50	3.75	0.75	2.00	0.00	0.00	0.00	0.00	0.00	0.00	0.00	0.00	0.00	0.00	0.00	0.00	-0.115234	0.042969	1.067871	12.390000	-22.049999	-12.950000	92.00	-0.371380	-0.059138
2.19	14.00	15.25	8.00	11.50	0.50	4.75	0.25	1.25	0.00	0.00	0.50	0.75	0.75	0.50	0.00	0.50	-0.100098	0.131836	0.987793	-8.330000	5.670000	-0.140000	555.00	-0.294227	-0.089382	3.50	3.75	0.75	2.00	0.00	0.00	0.00	0.00	0.00	0.00	0.00	0.00	0.00	0.00	0.00	0.00	-0.134766	-0.012695	1.096191	9.520000	-26.740000	-21.490000	92.00	-0.371380	-0.059138
2.20	13.75	15.25	7.75	11.50	0.50	4.75	0.25	1.50	0.00	0.00	0.50	0.75	0.75	0.25	0.25	0.50	-0.097656	0.132812	0.988281	-9.100000	6.230000	-0.140000	554.00	-0.291560	-0.093856	3.50	4.00	0.75	2.25	0.00	0.00	0.00	0.00	0.00	0.00	0.00	0.00	0.00	0.00	0.00	0.00	-0.112305	0.030762	1.091797	6.300000	-32.549999	-30.940001	97.00	-0.370197	-0.065745
2.21	14.00	15.25	8.25	12.00	0.50	4.50	0.25	1.50	0.00	0.25	0.50	0.75	0.75	0.25	0.00	0.25	-0.102539	0.130371	0.986328	-9.520000	6.580000	-0.140000	563.00	-0.294569	-0.090617	3.75	4.00	0.75	2.25	0.00	0.00	0.00	0.00	0.00	0.00	0.00	0.00	0.00	0.00	0.00	0.00	-0.114258	0.089844	1.096191	5.950000	-38.220001	-37.380001	99.00	-0.370988	-0.061586
2.22	14.00	15.25	8.25	12.00	0.50	4.75	0.25	1.50	0.00	0.25	0.50	0.75	0.75	0.25	0.00	0.25	-0.104980	0.124023	0.987305	-9.450000	6.580000	-0.280000	566.00	-0.293943	-0.091418	3.75	4.00	0.75	2.00	0.00	0.00	0.00	0.00	0.00	0.00	0.00	0.00	0.00	0.00	0.00	0.00	-0.123047	0.070801	1.027832	6.160000	-41.299999	-42.000000	97.00	-0.373148	-0.057358
2.23	14.00	15.00	8.25	12.00	0.75	4.75	0.25	1.50	0.00	0.25	0.25	0.75	0.75	0.25	0.00	0.50	-0.113770	0.129395	0.998535	-9.800000	6.930000	-0.280000	565.00	-0.293492	-0.090848	3.75	4.00	0.75	2.00	0.00	0.00	0.00	0.00	0.00	0.00	0.00	0.00	0.00	0.00	0.00	0.00	-0.113281	-0.034668	1.034180	4.760000	-41.790001	-53.900002	97.00	-0.373148	-0.057358
2.24	14.00	15.00	8.50	12.00	0.75	4.75	0.25	1.75	0.00	0.25	0.50	0.75	0.75	0.25	0.25	0.25	-0.111328	0.120605	0.996094	-9.100000	6.370000	-0.280000	575.00	-0.287980	-0.091453	3.75	4.00	1.00	2.00	0.00	0.00	0.00	0.00	0.00	0.00	0.00	0.00	0.00	0.00	0.00	0.00	-0.113281	-0.034668	1.034180	4.760000	-41.790001	-53.900002	99.00	-0.370382	-0.053593
2.25	14.00	15.00	8.50	11.75	1.00	4.75	0.25	1.75	0.00	0.00	0.50	0.50	0.75	0.00	0.25	0.25	-0.115234	0.119141	0.998047	-7.910000	5.390000	-0.280000	568.00	-0.293998	-0.090896	3.75	4.00	0.75	2.25	0.00	0.00	0.00	0.00	0.00	0.00	0.00	0.00	0.00	0.00	0.00	0.00	-0.108887	-0.024902	1.027832	3.570000	-42.349998	-63.209999	99.00	-0.370988	-0.061586
2.26	14.00	15.25	8.75	11.75	0.75	4.75	0.25	1.75	0.00	0.25	0.50	0.50	0.75	0.00	0.25	0.25	-0.114258	0.125000	0.994141	-7.000000	4.550000	-0.280000	572.00	-0.292841	-0.090394	3.75	3.75	0.50	2.00	0.00	0.00	0.00	0.00	0.00	0.00	0.00	0.00	0.00	0.00	0.00	0.00	-0.145996	-0.145996	0.982422	3.150000	-41.650002	-74.900002	92.00	-0.375136	-0.058934
2.27	13.75	15.50	8.75	12.00	0.75	4.75	0.25	1.75	0.00	0.50	0.50	0.75	1.00	0.00	0.25	0.25	-0.110840	0.121582	0.978516	-7.000000	4.480000	-0.280000	581.00	-0.286965	-0.093554	4.00	4.00	0.75	1.50	0.00	0.00	0.00	0.00	0.00	0.00	0.00	0.00	0.00	0.00	0.00	0.00	-0.114258	-0.174316	0.963379	-2.730000	-36.750000	-104.860001	94.00	-0.378464	-0.044262
2.28	14.00	15.50	8.50	12.00	0.75	4.75	0.25	1.50	0.00	0.25	0.50	0.75	0.75	0.00	0.50	0.25	-0.109375	0.125977	0.979004	-7.700000	4.760000	-0.280000	576.00	-0.290045	-0.091059	3.75	3.75	0.75	1.75	0.00	0.00	0.00	0.00	0.00	0.00	0.00	0.00	0.00	0.00	0.00	0.00	-0.114258	-0.174316	0.963379	-2.730000	-36.750000	-104.860001	92.00	-0.374480	-0.050321
2.29	13.75	15.50	8.25	11.75	0.75	4.75	0.25	1.50	0.00	0.00	0.50	0.75	0.75	0.00	0.50	0.25	-0.110840	0.123535	0.988281	-8.050000	4.970000	-0.210000	566.00	-0.291922	-0.092767	3.50	3.50	0.50	1.50	0.00	0.00	0.00	0.00	0.00	0.00	0.00	0.00	0.00	0.00	0.00	0.00	-0.193359	-0.179199	1.014160	-3.710000	-35.490002	-121.169998	83.00	-0.378578	-0.050944
2.30	14.00	15.50	8.25	11.75	0.75	4.75	0.25	1.75	0.00	0.25	0.50	0.75	1.00	0.00	0.50	0.25	-0.113770	0.120117	0.996582	-8.260000	4.970000	-0.210000	576.00	-0.286899	-0.094373	3.25	3.50	0.50	1.25	0.00	0.00	0.00	0.00	0.00	0.00	0.00	0.00	0.00	0.00	0.00	0.00	-0.257812	-0.137207	0.999512	-9.170000	-35.209999	-153.649994	78.00	-0.380753	-0.050200
2.31	14.00	15.25	8.25	11.75	0.75	4.75	0.25	1.75	0.00	0.00	0.50	0.75	1.00	0.00	0.25	0.25	-0.111816	0.113281	0.998535	-7.770000	4.410000	-0.210000	569.00	-0.291566	-0.094820	3.00	3.50	0.50	1.00	0.00	0.00	0.00	0.00	0.00	0.00	0.00	0.00	0.00	0.00	0.00	0.00	-0.225586	-0.067383	1.038574	-10.290000	-35.279999	-167.860001	73.00	-0.383219	-0.049355
2.32	14.00	15.00	8.25	12.00	0.75	4.75	0.25	1.75	0.00	0.00	0.50	0.75	1.00	0.00	0.25	0.25	-0.117188	0.119141	0.991699	-6.790000	3.850000	-0.070000	570.00	-0.291087	-0.095130	3.25	3.50	0.25	1.00	0.00	0.00	0.00	0.00	0.00	0.00	0.00	0.00	0.00	0.00	0.00	0.00	-0.287109	-0.036621	0.995605	-9.100000	-35.630001	-178.919998	73.00	-0.388008	-0.049072
2.33	14.00	15.00	8.00	12.00	0.75	4.50	0.25	1.75	0.00	0.00	0.50	0.75	1.00	0.25	0.25	0.00	-0.113281	0.114746	0.984375	-6.020000	3.500000	0.140000	565.00	-0.290823	-0.093756	2.50	3.25	0.50	1.00	0.00	0.00	0.00	0.00	0.00	0.00	0.00	0.00	0.00	0.00	0.00	0.00	-0.178223	0.052246	0.981445	-6.370000	-34.299999	-187.600006	66.00	-0.380707	-0.056964
2.34	14.00	15.00	8.25	11.75	0.75	4.50	0.25	1.75	0.00	0.00	0.50	0.50	1.00	0.25	0.00	0.25	-0.112793	0.116699	0.992676	-5.950000	3.710000	0.210000	562.00	-0.294423	-0.092010	2.00	2.75	0.00	1.00	0.00	0.00	0.00	0.00	0.00	0.00	0.00	0.00	0.00	0.00	0.00	0.00	-0.279297	0.062012	0.957520	-4.620000	-33.180000	-193.479996	52.00	-0.387032	-0.077543
2.35	14.00	15.25	8.50	12.00	0.75	4.75	0.25	2.00	0.00	0.00	0.50	0.75	1.00	0.25	0.50	0.50	-0.114746	0.116211	0.997559	-5.810000	3.780000	0.350000	583.00	-0.283127	-0.095848	2.25	2.50	0.00	1.00	0.00	0.00	0.00	0.00	0.00	0.00	0.00	0.00	0.00	0.00	0.00	0.00	-0.216797	0.087891	0.928711	-1.890000	-30.520000	-198.380005	52.00	-0.386581	-0.065555
2.36	14.00	15.25	8.50	12.00	0.75	4.75	0.25	2.00	0.00	0.00	0.50	0.75	1.00	0.25	0.25	0.50	-0.119629	0.118652	0.996582	-5.110000	3.150000	0.560000	581.00	-0.285996	-0.095904	2.25	2.00	0.00	1.00	0.00	0.00	0.00	0.00	0.00	0.00	0.00	0.00	0.00	0.00	0.00	0.00	-0.235840	0.106934	0.969727	0.490000	-27.580000	-200.690002	48.00	0.000000	0.000000
2.37	14.00	15.50	8.75	12.00	0.75	4.75	0.25	1.75	0.00	0.00	0.50	0.50	1.00	0.00	0.25	0.50	-0.118164	0.117676	0.986328	-4.830000	2.870000	0.770000	578.00	-0.292456	-0.093652	2.00	2.25	0.00	0.75	0.00	0.00	0.00	0.00	0.00	0.00	0.00	0.00	0.00	0.00	0.00	0.00	-0.209961	0.148926	0.985840	2.310000	-28.139999	-200.410004	45.00	0.000000	0.000000
2.38	13.75	15.50	8.75	12.00	0.75	4.75	0.25	1.75	0.00	0.25	0.50	0.75	1.25	0.00	0.50	0.25	-0.108398	0.118652	0.989258	-4.830000	3.080000	0.980000	583.00	-0.284682	-0.095407	2.25	2.00	0.25	0.75	0.00	0.00	0.00	0.00	0.00	0.00	0.00	0.00	0.00	0.00	0.00	0.00	-0.291504	0.193359	0.943848	4.060000	-28.910000	-198.589996	48.00	0.000000	0.000000
2.39	14.00	15.50	8.75	12.00	0.75	4.75	0.25	1.75	0.00	0.25	0.50	0.75	1.00	0.00	0.25	0.25	-0.110840	0.111328	0.984863	-4.830000	3.080000	1.120000	581.00	-0.289596	-0.093374	1.75	1.75	0.00	0.75	0.00	0.00	0.00	0.00	0.00	0.00	0.00	0.00	0.00	0.00	0.00	0.00	-0.206055	0.219238	0.863770	6.300000	-27.090000	-196.490005	39.00	0.000000	0.000000
2.40	14.25	15.50	8.75	12.00	0.75	4.75	0.25	1.75	0.00	0.00	0.50	0.75	1.00	0.25	0.25	0.50	-0.114258	0.121094	0.993652	-3.430000	2.310000	1.120000	585.00	-0.288479	-0.092760	1.50	1.75	0.00	0.75	0.00	0.00	0.00	0.00	0.00	0.00	0.00	0.00	0.00	0.00	0.00	0.00	-0.159668	0.266113	0.919434	7.070000	-23.309999	-193.130005	36.00	0.000000	0.000000
2.41	14.25	15.50	8.75	12.00	0.75	4.75	0.25	1.75	0.00	0.00	0.50	0.75	0.75	0.25	0.25	0.50	-0.114258	0.121094	0.993652	-3.430000	2.310000	1.120000	583.00	-0.290046	-0.091497	1.50	1.75	0.00	0.75	0.00	0.00	0.00	0.00	0.00	0.00	0.00	0.00	0.00	0.00	0.00	0.00	-0.199707	0.333496	0.948242	6.020000	-21.700001	-188.160004	36.00	0.000000	0.000000
2.42	14.00	15.50	8.75	12.00	1.00	4.75	0.25	1.75	0.00	0.00	0.50	1.00	0.75	0.00	0.25	0.25	-0.112305	0.107422	0.991211	-3.080000	2.030000	1.120000	582.00	-0.290557	-0.092925	1.75	1.50	0.00	0.50	0.00	0.00	0.00	0.00	0.00	0.00	0.00	0.00	0.00	0.00	0.00	0.00	-0.174316	0.358887	0.919922	5.320000	-21.000000	-181.509995	34.00	0.000000	0.000000
2.43	14.25	15.50	8.75	12.00	1.00	4.75	0.25	1.75	0.00	0.25	0.25	0.75	0.75	0.00	0.25	0.25	-0.115234	0.113281	0.991211	-3.010000	2.170000	1.050000	582.00	-0.293044	-0.090528	1.75	1.75	0.00	0.75	0.00	0.00	0.00	0.00	0.00	0.00	0.00	0.00	0.00	0.00	0.00	0.00	-0.080566	0.434082	0.928711	5.810000	-17.920000	-173.669998	39.00	0.000000	0.000000
2.44	14.50	15.50	8.50	12.00	1.00	4.75	0.25	2.50	0.00	0.25	0.50	0.75	0.75	0.00	0.25	0.25	-0.113770	0.121094	0.985352	-3.500000	2.590000	1.190000	594.00	-0.286588	-0.095894	1.25	2.00	0.00	0.75	0.00	0.00	0.00	0.00	0.00	0.00	0.00	0.00	0.00	0.00	0.00	0.00	-0.020508	0.490234	0.965332	6.720000	-16.799999	-162.889999	36.00	0.000000	0.000000
2.45	14.50	15.50	8.75	12.00	1.00	5.00	0.25	2.50	0.00	0.25	0.75	0.75	0.75	0.00	0.00	0.50	-0.109863	0.112305	0.975098	-4.270000	3.080000	1.190000	601.00	-0.285342	-0.096427	1.50	2.00	0.25	0.75	0.00	0.00	0.00	0.00	0.00	0.00	0.00	0.00	0.00	0.00	0.00	0.00	-0.080078	0.536133	0.953613	7.070000	-16.940001	-149.449997	41.00	0.000000	0.000000
2.46	14.00	15.50	8.75	12.00	1.00	4.75	0.25	2.00	0.00	0.25	0.50	0.75	0.75	0.00	0.00	0.25	-0.103027	0.111328	0.975098	-5.530000	3.850000	1.400000	583.00	-0.291691	-0.093273	2.00	2.00	0.00	0.75	0.00	0.00	0.00	0.00	0.00	0.00	0.00	0.00	0.00	0.00	0.00	0.00	-0.120605	0.575684	0.898926	6.020000	-16.309999	-134.470001	43.00	0.000000	0.000000
2.47	14.25	15.50	9.00	12.00	1.00	4.75	0.25	1.75	0.00	0.25	0.50	0.75	1.00	0.25	0.25	0.25	-0.106934	0.108887	0.978516	-6.300000	4.690000	1.330000	591.00	-0.286929	-0.090221	1.75	1.75	0.00	1.00	0.00	0.00	0.00	0.00	0.00	0.00	0.00	0.00	0.00	0.00	0.00	0.00	-0.097656	0.641113	0.887207	5.670000	-12.250000	-118.370003	41.00	0.000000	0.000000
2.48	14.25	15.25	8.75	12.00	0.75	4.75	0.25	1.75	0.00	0.25	0.75	0.75	0.75	0.25	0.50	0.50	-0.116699	0.117676	0.973145	-7.280000	5.110000	1.260000	588.00	-0.282479	-0.090662	1.25	2.00	0.25	1.00	0.00	0.00	0.00	0.00	0.00	0.00	0.00	0.00	0.00	0.00	0.00	0.00	-0.089844	0.646484	0.915039	5.040000	-8.470000	-101.010002	41.00	0.000000	0.000000
2.49	14.00	15.50	8.75	12.00	1.00	4.75	0.25	1.75	0.00	0.00	0.50	0.75	0.75	0.25	0.25	0.25	-0.115723	0.121582	0.978027	-9.310000	6.300000	1.120000	581.00	-0.290271	-0.091176	1.50	2.75	0.25	1.00	0.00	0.00	0.00	0.00	0.00	0.00	0.00	0.00	0.00	0.00	0.00	0.00	-0.084473	0.683594	0.906250	5.250000	-5.040000	-81.480003	50.00	0.000000	0.000000
2.50	14.25	15.25	8.50	12.00	1.00	4.75	0.25	1.75	0.00	0.00	0.50	0.50	0.75	0.25	0.50	0.25	-0.113281	0.110352	0.985352	-10.710000	7.280000	0.980000	579.00	-0.289557	-0.089992	2.25	3.00	0.25	1.00	0.00	0.00	0.00	0.00	0.00	0.00	0.00	0.00	0.00	0.00	0.00	0.00	-0.094238	0.695312	0.901367	5.320000	-1.680000	-60.480000	59.00	-0.383493	-0.066031
2.51	14.00	15.25	8.75	12.00	1.00	4.75	0.25	1.75	0.00	0.25	0.50	0.50	0.50	0.00	0.25	0.25	-0.118652	0.103027	0.993652	-11.130000	7.630000	0.700000	575.00	-0.293689	-0.089031	2.25	3.00	0.25	1.00	0.00	0.00	0.00	0.00	0.00	0.25	0.00	0.00	0.00	0.00	0.00	0.00	-0.099121	0.694824	0.911621	5.040000	1.750000	-38.150002	61.00	-0.359366	-0.061007
2.52	14.00	15.25	8.75	12.00	1.00	4.75	0.25	1.75	0.00	0.50	0.50	0.50	0.75	0.25	0.25	0.25	-0.120605	0.114258	0.988281	-11.270000	7.700000	0.560000	582.00	-0.287547	-0.088789	2.25	2.75	0.25	1.50	0.00	0.00	0.00	0.00	0.00	0.25	0.00	0.00	0.00	0.00	0.00	0.00	-0.122559	0.618164	0.909180	3.920000	6.020000	-16.170000	64.00	-0.351902	-0.070335
2.53	14.00	15.00	8.50	11.75	1.00	4.50	0.25	1.75	0.00	0.50	0.50	0.75	0.75	0.25	0.25	0.25	-0.116699	0.104980	0.993652	-11.480000	8.050000	0.420000	574.00	-0.285670	-0.088773	2.50	3.75	0.25	1.75	0.00	0.00	0.00	0.00	0.00	0.25	0.00	0.00	0.00	0.00	0.00	0.00	-0.117676	0.422852	0.926758	1.540000	11.410000	2.100000	78.00	-0.358415	-0.080246
2.54	13.75	14.75	8.50	11.75	1.00	4.50	0.25	1.75	0.00	0.25	0.50	0.75	0.75	0.00	0.25	0.25	-0.118652	0.103516	0.990234	-11.340000	8.120000	0.350000	566.00	-0.289313	-0.090874	3.00	3.75	0.25	1.75	0.00	0.00	0.00	0.00	0.00	0.00	0.00	0.00	0.00	0.00	0.00	0.00	-0.108887	0.209961	0.953125	-2.450000	16.100000	11.340000	80.00	-0.378868	-0.073346
2.55	14.00	15.00	8.50	11.50	1.00	4.50	0.25	1.50	0.00	0.25	0.50	0.75	1.00	0.00	0.50	0.50	-0.117676	0.095703	0.985840	-11.200000	8.050000	0.210000	570.00	-0.285973	-0.089645	3.25	4.00	0.25	2.00	0.00	0.00	0.00	0.00	0.00	0.00	0.00	0.00	0.00	0.00	0.00	0.00	-0.105957	0.068848	0.997070	-8.470000	20.860001	7.700000	87.00	-0.377820	-0.075002
2.56	13.75	14.75	8.75	11.50	1.00	4.75	0.25	1.50	0.00	0.25	0.50	0.75	0.75	0.25	0.50	0.50	-0.126465	0.090332	0.993164	-10.990000	8.050000	0.140000	570.00	-0.283529	-0.087969	3.50	4.00	0.50	2.00	0.00	0.00	0.00	0.00	0.00	0.00	0.00	0.00	0.00	0.00	0.00	0.00	-0.105957	0.068848	0.997070	-8.470000	20.860001	7.700000	92.00	-0.375359	-0.065708
2.57	13.75	14.50	8.75	11.25	1.00	4.75	0.25	1.50	0.00	0.50	0.50	1.00	0.75	0.00	0.00	0.50	-0.126465	0.090332	0.993164	-10.990000	8.050000	0.140000	564.00	-0.287021	-0.088285	3.50	4.00	0.50	2.25	0.00	0.00	0.00	0.00	0.00	0.25	0.00	0.00	0.00	0.00	0.00	0.00	-0.116699	0.121094	0.990234	-9.170000	22.820000	3.780000	97.00	-0.357962	-0.066648
2.58	13.75	14.50	8.50	11.25	1.00	4.50	0.25	1.25	0.00	0.25	0.50	0.50	0.75	0.00	0.25	0.50	-0.123535	0.091797	0.991699	-10.150000	7.770000	-0.140000	550.00	-0.293052	-0.085171	3.50	4.25	0.50	2.25	0.00	0.00	0.00	0.00	0.00	0.25	0.00	0.00	0.00	0.00	0.00	0.00	-0.146484	0.161621	1.068359	-12.460000	24.360001	1.890000	99.00	-0.359211	-0.068764
2.59	13.50	14.50	8.50	11.25	1.25	4.50	0.25	1.50	0.00	0.25	0.50	0.50	0.75	0.00	0.50	0.25	-0.123535	0.091797	0.991699	-10.150000	7.770000	-0.140000	555.00	-0.288490	-0.086729	3.75	4.25	1.00	2.25	0.00	0.00	0.00	0.00	0.00	0.00	0.00	0.00	0.00	0.00	0.00	0.00	-0.152344	0.189941	1.028809	-21.139999	15.820000	2.590000	104.00	-0.369322	-0.059999
2.60	13.50	14.50	8.50	11.25	1.00	4.50	0.25	1.50	0.00	0.50	0.50	0.75	0.75	0.25	0.25	0.25	-0.132812	0.087891	0.991699	-9.100000	7.000000	-0.490000	557.00	-0.285369	-0.086751	4.00	4.00	1.25	2.50	0.00	0.00	0.00	0.00	0.00	0.00	0.00	0.00	0.00	0.00	0.00	0.00	-0.134766	0.172363	0.981445	-23.100000	14.350000	3.500000	109.00	-0.364849	-0.054599
2.61	13.25	14.25	8.25	11.25	1.25	4.25	0.25	1.50	0.00	0.50	0.50	0.75	0.75	0.25	0.50	0.25	-0.132812	0.091309	0.988770	-8.330000	6.580000	-0.490000	552.00	-0.281300	-0.086569	3.75	4.25	0.75	2.50	0.00	0.00	0.00	0.00	0.00	0.25	0.00	0.00	0.00	0.00	0.00	0.00	-0.127930	0.146484	1.014648	-25.410000	14.140000	3.780000	106.00	-0.356255	-0.064700
2.62	13.00	14.25	8.25	11.25	1.25	4.25	0.25	1.25	0.00	0.50	0.50	0.50	0.75	0.25	0.25	0.50	-0.126465	0.084961	0.991211	-8.190000	6.370000	-0.420000	543.00	-0.286255	-0.085079	4.00	4.50	0.75	2.75	0.00	0.25	0.00	0.00	0.00	0.25	0.25	0.00	0.00	0.00	0.00	0.00	-0.143555	0.126953	1.055664	-23.309999	11.270000	3.850000	118.00	-0.340737	-0.071847
2.63	13.00	14.25	8.00	11.25	1.25	4.25	0.25	1.25	0.00	0.50	0.50	0.75	0.50	0.00	0.25	0.50	-0.133301	0.086914	0.989258	-7.980000	6.160000	-0.560000	539.00	-0.288352	-0.086406	4.00	4.75	1.25	3.25	0.00	0.25	0.00	0.25	0.00	0.50	0.25	0.00	0.00	0.00	0.00	0.00	-0.147949	0.118164	1.013672	-19.180000	7.140000	3.850000	136.00	-0.318617	-0.078692
2.64	13.25	14.00	8.25	11.00	1.25	4.50	0.25	1.25	0.00	0.50	0.75	0.75	0.75	0.25	0.50	0.50	-0.131836	0.093262	0.989258	-7.840000	6.160000	-0.630000	550.00	-0.278207	-0.085191	4.00	4.75	1.75	3.25	0.25	0.00	0.00	0.25	0.00	0.50	0.25	0.00	0.00	0.00	0.00	0.00	-0.139160	0.129395	0.993652	-16.030001	4.970000	3.920000	141.00	-0.316193	-0.066727
2.65	13.25	13.75	8.50	10.75	1.25	4.50	0.25	1.25	0.00	0.50	0.50	0.50	0.75	0.50	0.25	0.50	-0.133301	0.087891	0.990723	-7.910000	6.230000	-0.630000	543.00	-0.282519	-0.081410	4.00	4.75	1.75	3.50	0.25	0.25	0.00	0.25	0.00	0.50	0.25	0.00	0.00	0.00	0.00	0.00	-0.130371	0.135254	0.978516	-14.630000	3.570000	4.060000	146.00	-0.312917	-0.072939
2.66	13.00	13.75	8.50	10.75	1.25	4.25	0.50	1.25	0.00	0.50	0.50	0.50	0.75	0.25	0.25	0.25	-0.134766	0.085938	0.990723	-7.840000	6.300000	-0.630000	539.00	-0.284253	-0.079666	4.50	4.75	1.75	3.50	0.25	0.50	0.00	0.25	0.00	0.50	0.25	0.00	0.00	0.25	0.00	0.00	-0.133789	0.124512	1.010254	-13.440001	1.120000	4.130000	156.00	-0.303998	-0.067460
2.67	13.00	13.50	8.25	10.50	1.25	4.25	0.25	1.25	0.00	0.50	0.50	0.75	0.75	0.00	0.25	0.25	-0.132812	0.085449	0.997070	-7.630000	6.440000	-0.700000	528.00	-0.286526	-0.083511	4.50	4.75	1.75	3.50	0.25	0.75	0.00	0.25	0.00	0.50	0.25	0.25	0.00	0.25	0.00	0.00	-0.151855	0.124512	1.017090	-10.290000	-3.360000	3.990000	161.00	-0.293927	-0.074074
2.68	13.00	13.50	8.00	10.50	1.50	4.25	0.25	1.25	0.00	0.50	0.75	0.75	0.75	0.25	0.00	0.25	-0.135254	0.084961	0.991699	-7.490000	6.370000	-0.700000	530.00	-0.284135	-0.082848	4.00	4.75	2.00	4.25	0.50	1.00	0.00	0.50	0.00	0.75	0.25	0.25	0.00	0.25	0.00	0.25	-0.154297	0.119629	1.023926	-7.910000	-5.810000	3.710000	178.00	-0.268742	-0.089886
2.69	12.75	13.50	8.00	10.25	1.25	4.25	0.25	1.25	0.00	0.50	0.75	0.75	0.50	0.50	0.25	0.25	-0.134766	0.083984	0.996094	-7.280000	6.300000	-0.700000	525.00	-0.280295	-0.081313	3.75	4.75	2.25	4.50	0.50	1.00	0.00	0.50	0.00	0.75	0.50	0.25	0.00	0.25	0.00	0.25	-0.148438	0.126953	1.018066	-6.720000	-6.160000	3.640000	183.00	-0.260744	-0.092147
2.70	13.00	13.50	7.75	9.50	1.25	4.25	0.25	1.00	0.00	0.50	0.50	0.50	0.25	0.25	0.50	0.25	-0.133789	0.089844	0.995605	-7.420000	6.720000	-0.840000	508.00	-0.288545	-0.075356	4.75	4.75	2.25	4.50	0.50	1.25	0.00	0.50	0.25	0.75	0.50	0.25	0.25	0.50	0.25	0.25	-0.154297	0.124512	1.011719	-5.110000	-5.740000	3.780000	204.00	-0.239934	-0.080578
2.71	13.00	13.25	7.25	9.50	1.25	4.25	0.50	0.75	0.00	0.50	0.50	0.50	0.50	0.25	0.50	0.25	-0.128906	0.078613	0.995605	-7.700000	7.070000	-0.910000	503.00	-0.285778	-0.073786	5.00	4.75	3.00	4.50	0.50	1.25	0.00	0.75	0.25	0.75	0.75	0.25	0.50	0.50	0.25	0.25	-0.153809	0.126465	1.009766	-3.570000	-5.460000	4.060000	222.00	-0.230303	-0.081375
2.72	12.50	13.00	7.25	9.25	1.25	4.00	0.50	1.25	0.00	0.50	0.50	0.50	0.75	0.25	0.50	0.50	-0.140137	0.070801	0.993652	-7.770000	7.560000	-1.120000	501.00	-0.277551	-0.079935	4.75	4.75	3.50	4.50	0.50	1.25	0.00	1.00	0.25	1.00	0.75	0.50	0.50	0.50	0.25	0.25	-0.147949	0.133301	1.004883	-2.520000	-5.670000	4.270000	233.00	-0.216723	-0.084931
2.73	12.00	12.75	7.25	9.00	1.25	4.00	0.50	1.25	0.00	0.50	0.50	0.50	0.50	0.25	0.50	0.25	-0.140137	0.070801	0.993652	-7.770000	7.560000	-1.120000	488.00	-0.279138	-0.078493	5.25	4.75	3.00	4.50	0.50	1.50	0.00	1.00	0.25	1.00	0.75	0.75	0.50	0.50	0.25	0.25	-0.132324	0.126465	0.998047	-1.750000	-5.810000	4.410000	238.00	-0.214396	-0.088918
2.74	12.00	12.25	7.25	8.75	1.25	4.00	0.50	1.00	0.25	0.50	0.50	0.50	0.25	0.25	0.25	0.25	-0.129395	0.057129	0.990723	-7.910000	7.910000	-1.120000	477.00	-0.281815	-0.070827	5.25	4.75	3.50	5.00	0.50	1.50	0.00	1.00	0.25	1.00	0.75	0.75	0.50	0.50	0.25	0.25	-0.137695	0.126953	1.003418	-0.910000	-5.740000	4.480000	248.00	-0.216928	-0.087999
2.75	11.50	12.25	6.75	8.75	1.50	3.00	0.50	0.75	0.00	0.50	0.50	0.50	0.25	0.25	0.00	0.50	-0.141602	0.081543	0.996582	-8.190000	8.750000	-1.330000	452.00	-0.290256	-0.069761	5.00	4.75	3.00	5.50	0.50	1.50	0.00	1.25	0.25	1.50	0.75	0.75	0.75	0.50	0.25	0.25	-0.144531	0.127930	1.008789	-0.140000	-5.880000	4.760000	256.00	-0.201315	-0.100267
2.76	11.25	11.75	6.25	9.00	1.25	2.75	0.50	0.75	0.25	0.50	0.50	0.50	0.25	0.50	0.00	0.50	-0.141113	0.077148	0.994141	-8.400000	8.960000	-1.260000	443.00	-0.283634	-0.068697	4.75	5.25	4.00	5.50	0.75	1.75	0.00	1.50	0.25	1.75	0.75	0.75	0.50	0.50	0.25	0.50	-0.149414	0.128418	1.001953	0.700000	-5.810000	4.970000	278.00	-0.198077	-0.096772
2.77	11.25	11.50	6.25	8.75	1.25	2.25	0.50	0.50	0.25	0.50	0.50	0.50	0.00	0.50	0.50	0.25	-0.148926	0.083008	1.004395	-8.820000	9.380000	-1.330000	431.00	-0.282889	-0.059974	5.00	5.50	4.00	5.50	1.00	2.00	0.25	2.00	0.25	1.75	0.75	0.75	0.75	0.50	0.25	0.75	-0.148438	0.132812	1.007812	1.050000	-6.160000	5.180000	301.00	-0.187966	-0.101979
2.78	10.75	11.00	6.25	8.25	1.25	2.00	0.50	0.50	0.25	0.50	0.50	0.50	0.00	0.50	0.50	0.25	-0.154785	0.091797	0.997559	-9.310000	9.730000	-1.330000	415.00	-0.280883	-0.057551	4.75	5.50	4.25	6.00	1.25	4.00	0.25	2.25	0.50	1.75	1.25	0.75	1.25	0.75	0.25	0.75	-0.140137	0.134277	1.001465	1.120000	-6.720000	5.110000	346.00	-0.167142	-0.114863
2.79	10.50	10.00	5.75	8.00	1.00	1.75	0.50	0.50	0.00	0.50	0.50	0.50	0.00	0.50	0.25	0.25	-0.147949	0.075684	0.999023	-9.940000	10.430000	-1.260000	386.00	-0.287645	-0.058863	5.00	5.75	4.75	6.00	1.00	4.25	0.25	2.75	0.50	1.75	1.50	1.00	1.50	0.75	0.25	1.25	-0.145020	0.139160	1.007324	0.980000	-7.070000	5.110000	372.00	-0.158372	-0.122728
2.80	10.00	9.25	5.50	7.25	1.00	1.50	0.50	0.25	0.00	0.50	0.50	0.50	0.00	0.25	0.25	0.25	-0.150391	0.073730	1.002930	-10.570000	11.480000	-1.260000	357.00	-0.291445	-0.053307	5.50	6.25	4.75	6.00	1.25	4.25	0.25	3.00	0.50	2.00	1.75	1.00	1.75	1.00	0.50	1.25	-0.145020	0.130859	1.001953	0.840000	-7.210000	5.040000	398.00	-0.149954	-0.120444
2.81	9.25	8.75	5.25	6.75	1.00	1.25	0.50	0.25	0.00	0.50	0.25	0.50	0.00	0.25	0.25	0.25	-0.160645	0.087402	0.997559	-11.970000	12.880000	-1.540000	333.00	-0.292492	-0.051757	5.50	6.25	4.75	6.25	1.25	4.25	0.25	3.00	0.50	2.00	1.75	1.50	1.75	1.00	0.50	1.25	-0.141602	0.131348	1.008789	0.840000	-7.350000	4.970000	405.00	-0.146532	-0.123175
2.82	8.75	9.00	5.00	6.50	0.75	1.25	0.25	0.25	0.25	0.50	0.00	0.50	0.00	0.50	0.25	0.25	-0.170898	0.081543	1.011230	-13.930000	15.050000	-1.960000	322.00	-0.291742	-0.053806	6.00	6.50	5.00	7.00	1.25	4.50	0.25	3.50	0.50	2.00	1.75	1.75	2.50	1.00	0.50	1.50	-0.146484	0.134277	1.015137	0.630000	-7.280000	4.970000	441.00	-0.143923	-0.132548
2.83	8.00	8.25	4.75	5.50	0.75	1.00	0.25	0.00	0.25	0.50	0.00	0.25	0.00	0.00	0.00	0.00	-0.172363	0.084961	1.027344	-17.639999	18.480000	-2.520000	280.00	-0.314272	-0.044169	6.25	6.50	5.00	7.00	1.50	4.50	0.25	3.75	0.50	2.25	1.75	1.50	2.50	1.00	0.50	1.50	-0.145508	0.136719	1.005859	0.490000	-7.000000	5.180000	449.00	-0.144025	-0.130285
2.84	7.50	7.25	4.50	4.75	0.50	0.50	0.25	0.00	0.25	0.50	0.25	0.25	0.00	0.00	0.50	0.00	-0.159180	0.104980	1.051270	-26.460001	22.049999	-3.780000	256.00	-0.296902	-0.036997	7.00	6.75	5.50	7.25	1.75	5.50	0.25	4.00	0.50	2.25	2.25	2.00	3.00	1.25	0.50	1.75	-0.144043	0.139648	1.003906	0.140000	-6.860000	5.250000	499.00	-0.137072	-0.132325
2.85	6.75	6.00	4.00	4.25	0.50	0.00	0.25	0.00	0.25	0.25	0.25	0.00	0.00	0.25	0.50	0.00	-0.157715	0.168457	1.138184	-43.680000	23.170000	-5.460000	221.00	-0.297017	-0.025234	7.00	7.75	5.50	7.75	1.75	5.75	0.25	4.00	0.50	2.50	2.25	2.25	3.50	1.50	0.50	1.75	-0.144043	0.139648	1.003906	0.140000	-6.860000	5.250000	526.00	-0.135393	-0.135625
2.86	6.00	5.25	3.50	3.75	0.50	0.00	0.25	0.00	0.25	0.25	0.00	0.00	0.00	0.25	0.50	0.00	-0.215820	0.155762	1.044922	-64.330002	17.710001	-8.330000	195.00	-0.296758	-0.022305	7.00	8.00	6.00	7.75	2.00	6.25	0.25	4.25	0.50	3.00	2.25	2.25	4.00	1.50	0.50	2.25	-0.144531	0.135254	1.007812	-0.840000	-7.070000	5.250000	555.00	-0.129348	-0.137049
2.87	5.00	4.25	3.25	3.50	0.50	0.00	0.25	0.00	0.25	0.25	0.00	0.00	0.00	0.25	0.50	0.00	-0.024902	0.259277	1.363281	-89.529999	25.549999	-18.969999	172.00	-0.285620	-0.021189	7.25	8.00	6.00	8.25	2.00	6.50	0.25	5.25	0.50	3.00	2.50	2.50	4.50	1.50	0.50	2.25	-0.139648	0.135742	1.012695	-1.120000	-7.140000	5.320000	588.00	-0.124264	-0.146181
2.88	4.50	4.00	2.75	3.25	0.25	0.00	0.25	0.00	0.00	0.25	0.00	0.00	0.00	0.00	0.25	0.00	-0.165527	0.286133	1.314453	-131.180008	27.930000	-28.559999	148.00	-0.314902	-0.032675	7.25	8.00	5.50	8.25	2.75	7.00	0.25	5.25	0.50	3.00	2.75	2.75	4.75	1.50	0.50	2.50	-0.138672	0.143555	1.008789	-1.470000	-7.210000	5.110000	603.00	-0.118614	-0.148494
2.89	4.00	3.50	2.00	2.75	0.25	0.00	0.25	0.00	0.00	0.25	0.25	0.00	0.00	0.00	0.25	0.00	-0.198242	0.338379	1.427246	-171.149994	29.610001	-34.369999	128.00	-0.302247	-0.034833	7.00	8.00	5.50	8.25	2.75	7.00	0.25	5.25	0.75	3.00	2.75	3.00	5.00	1.75	0.50	2.75	-0.137695	0.145996	1.014160	-1.890000	-6.860000	4.690000	611.00	-0.110769	-0.148316
2.90	3.50	3.25	1.75	1.75	0.25	0.00	0.25	0.00	0.00	0.00	0.00	0.00	0.00	0.00	0.25	0.00	-0.122070	0.436523	1.712891	-200.479996	40.040001	-35.700001	104.00	-0.322156	-0.023854	7.25	8.25	6.00	8.75	2.75	7.25	0.50	6.25	0.75	3.00	3.00	3.25	5.50	1.75	0.50	2.75	-0.133301	0.137695	1.021973	-2.380000	-6.300000	4.410000	655.00	-0.108304	-0.152075
2.91	3.50	3.00	1.50	1.25	0.25	0.00	0.25	0.00	0.00	0.00	0.00	0.00	0.00	0.00	0.25	0.00	-0.014160	0.642090	1.174316	-197.680008	52.779999	-37.450001	95.00	-0.323416	-0.013084	7.25	8.00	6.00	9.25	3.25	7.25	0.50	6.50	1.00	3.25	3.00	3.25	5.50	1.75	0.50	2.75	-0.139648	0.143066	1.021973	-2.310000	-5.390000	4.060000	671.00	-0.105444	-0.149555
2.92	3.25	2.25	1.25	1.25	0.25	0.00	0.25	0.00	0.00	0.00	0.00	0.00	0.00	0.00	0.00	0.00	0.107422	1.789062	1.046875	-87.010002	77.629997	9.800000	81.00	-0.337415	-0.005885	7.25	8.00	6.00	8.75	3.25	7.00	0.50	6.50	1.00	3.25	3.25	3.50	5.50	1.75	0.50	2.75	-0.142090	0.145508	1.017578	-2.100000	-4.270000	3.850000	669.00	-0.101585	-0.148936
2.93	3.25	1.75	1.00	1.25	0.25	0.00	0.25	0.00	0.00	0.00	0.00	0.00	0.00	0.00	0.25	0.00	0.107422	1.789062	1.046875	-87.010002	77.629997	9.800000	77.00	-0.312002	-0.002654	7.25	8.00	6.00	8.75	3.00	7.00	0.50	6.50	1.00	3.25	3.25	3.50	5.75	2.25	0.50	3.25	-0.145508	0.132324	1.019043	-1.960000	-3.290000	3.500000	675.00	-0.096008	-0.149361
2.94	2.50	1.50	1.00	1.00	0.00	0.00	0.25	0.00	0.00	0.00	0.00	0.00	0.00	0.00	0.25	0.00	0.331055	1.168457	1.477051	-9.660000	78.190002	105.699997	62.00	-0.306567	-0.003480	7.00	8.00	5.75	8.75	3.00	7.00	0.50	6.50	1.25	3.25	3.50	3.75	5.75	2.25	0.50	3.25	-0.134277	0.136230	1.019531	-1.610000	-2.660000	3.360000	677.00	-0.090517	-0.149692
2.95	2.25	1.75	0.75	1.00	0.00	0.00	0.25	0.00	0.00	0.00	0.00	0.00	0.00	0.00	0.00	0.00	0.402832	1.049805	1.259277	-17.010000	67.760002	144.970001	57.00	-0.338579	-0.014937	7.00	7.75	5.50	8.25	3.00	7.00	0.50	6.50	1.50	3.50	3.50	3.75	5.75	2.25	0.75	3.75	-0.137695	0.135254	1.021484	-0.980000	-1.960000	3.360000	678.00	-0.081262	-0.147726
2.96	1.75	1.75	0.50	1.00	0.00	0.00	0.25	0.00	0.00	0.00	0.00	0.00	0.00	0.00	0.25	0.00	0.430664	0.870605	1.081543	-9.660000	61.599998	167.930008	52.00	-0.301868	-0.034326	7.00	7.75	5.00	8.25	3.00	7.00	0.50	6.50	1.50	3.75	3.75	3.75	5.75	2.50	0.75	3.75	-0.136719	0.134766	1.021484	-0.140000	-0.840000	3.430000	680.00	-0.076250	-0.147720
2.97	1.25	1.25	0.75	0.75	0.25	0.00	0.25	0.00	0.00	0.00	0.00	0.00	0.00	0.00	0.00	0.00	0.520508	0.644043	1.027832	8.050000	59.500000	175.279999	44.00	0.000000	0.000000	7.00	7.25	5.00	7.75	2.75	7.00	0.50	6.50	1.50	3.75	3.75	4.00	6.00	2.75	0.75	3.75	-0.146973	0.135742	1.022461	0.350000	0.490000	3.360000	674.00	-0.069210	-0.148323
2.98	1.00	1.25	0.50	0.50	0.00	0.00	0.00	0.00	0.00	0.00	0.00	0.00	0.00	0.00	0.00	0.00	0.616699	0.389648	1.121094	21.840000	55.160000	171.570007	30.00	0.000000	0.000000	6.25	7.25	5.50	7.75	2.50	6.75	0.50	6.50	1.50	3.75	3.75	4.25	6.25	2.75	0.75	4.25	-0.137207	0.140625	1.027344	0.700000	2.030000	3.080000	674.00	-0.063374	-0.151617
2.99	1.00	1.25	0.50	0.25	0.00	0.00	0.00	0.00	0.00	0.00	0.00	0.00	0.00	0.00	0.25	0.00	0.659180	0.212402	1.180176	28.000000	43.820000	159.880005	30.00	0.000000	0.000000	5.50	6.75	5.00	7.25	2.50	6.75	0.25	6.50	1.50	4.00	3.75	4.00	6.25	2.75	0.75	4.25	-0.135254	0.141602	1.022461	0.840000	3.360000	2.800000	649.00	-0.054713	-0.156492
3.00	1.00	1.25	0.50	0.50	0.00	0.00	0.25	0.00	0.00	0.00	0.00	0.00	0.00	0.25	0.00	0.00	0.658691	0.067383	1.135742	28.630001	28.000000	141.960007	36.00	0.000000	0.000000	5.00	6.25	4.75	7.00	2.25	6.50	0.25	6.50	1.50	4.00	3.75	4.25	6.50	2.50	1.00	4.25	-0.139160	0.144531	1.016113	0.980000	4.410000	2.520000	635.00	-0.045266	-0.161759
3.01	1.75	1.25	0.50	0.50	0.00	0.00	0.25	0.00	0.00	0.00	0.00	0.00	0.00	0.00	0.00	0.00	0.636719	-0.031250	1.032227	24.920000	12.670000	120.050003	41.00	0.000000	0.000000	4.50	6.00	4.50	6.75	2.00	6.25	0.25	6.25	1.50	4.00	4.25	4.50	6.50	2.50	1.00	4.50	-0.144043	0.136230	1.015137	1.260000	4.970000	2.310000	623.00	-0.034974	-0.164213
3.02	1.00	1.00	0.50	0.50	0.00	0.00	0.25	0.00	0.00	0.00	0.00	0.00	0.00	0.00	0.00	0.00	0.596191	-0.062012	0.944824	18.830000	0.770000	96.320000	31.00	0.000000	0.000000	4.00	5.75	4.25	6.25	1.75	5.75	0.50	6.25	1.75	4.00	4.25	4.50	6.50	3.00	0.75	4.75	-0.148926	0.138184	1.016113	1.960000	5.740000	2.310000	611.00	-0.022429	-0.160897
3.03	0.50	1.00	0.25	0.50	0.00	0.00	0.25	0.00	0.00	0.00	0.00	0.00	0.00	0.00	0.25	0.00	0.561523	-0.019043	0.930176	14.770000	-9.520000	73.500000	27.00	0.000000	0.000000	3.75	5.50	4.00	6.25	1.75	5.50	0.50	6.50	1.75	4.00	4.50	4.75	6.50	3.00	1.25	4.75	-0.145996	0.133789	1.017578	2.940000	6.580000	2.520000	614.00	-0.012762	-0.163546
3.04	0.75	0.75	0.50	0.25	0.00	0.00	0.25	0.00	0.00	0.00	0.00	0.00	0.00	0.00	0.00	0.00	0.498047	0.032227	0.953125	13.650000	-19.600000	53.270000	25.00	0.000000	0.000000	3.75	5.00	3.75	6.00	1.50	5.50	0.25	6.25	1.75	4.25	4.50	4.50	6.50	3.00	1.25	4.75	-0.149902	0.137695	1.012207	3.710000	7.140000	2.730000	595.00	-0.007623	-0.164905
3.05	1.00	1.00	0.25	0.00	0.00	0.00	0.25	0.00	0.00	0.00	0.00	0.00	0.00	0.00	0.00	0.00	0.498047	0.104492	0.953125	12.950000	-29.120001	36.750000	24.00	0.000000	0.000000	3.50	4.50	2.75	5.75	1.25	4.75	0.25	6.25	1.75	4.00	4.75	4.75	6.50	2.75	1.25	5.00	-0.145996	0.137207	1.011719	4.200000	7.490000	2.800000	568.00	0.005577	-0.172733
3.06	0.75	1.00	0.00	0.00	0.00	0.00	0.25	0.00	0.00	0.00	0.00	0.00	0.00	0.25	0.25	0.00	0.452148	0.180176	0.981445	12.670000	-38.570000	24.710001	23.00	0.000000	0.000000	3.25	4.00	2.50	5.50	1.25	4.50	0.25	6.25	2.00	4.25	4.50	4.75	6.50	3.25	1.25	5.50	-0.152344	0.138184	1.005859	4.480000	7.560000	2.800000	563.00	0.019467	-0.169538
3.07	0.75	1.00	0.25	0.25	0.00	0.00	0.25	0.00	0.00	0.00	0.00	0.00	0.00	0.00	0.25	0.00	0.410645	0.255859	1.020996	12.320000	-47.810001	17.290001	26.00	0.000000	0.000000	2.50	3.75	2.25	5.25	1.25	4.25	0.25	6.25	2.00	4.50	4.75	5.00	6.50	3.25	1.25	5.50	-0.150879	0.139160	1.006836	4.830000	7.560000	2.730000	554.00	0.032688	-0.172913
3.08	1.00	1.00	0.00	0.00	0.00	0.25	0.25	0.00	0.00	0.00	0.00	0.00	0.00	0.00	0.00	0.00	0.312012	0.437012	1.030273	15.120000	-65.169998	15.610000	24.00	0.000000	0.000000	2.50	3.50	2.00	4.75	1.25	4.25	0.25	5.75	1.75	4.50	4.75	5.00	6.50	3.25	1.25	5.50	-0.153320	0.138672	1.011230	5.110000	7.420000	2.590000	534.00	0.038225	-0.173361
3.09	0.75	0.75	0.00	0.00	0.00	0.00	0.25	0.00	0.00	0.00	0.00	0.00	0.00	0.00	0.00	0.00	0.312012	0.437012	1.030273	15.120000	-65.169998	15.610000	17.00	0.000000	0.000000	2.50	3.25	2.00	4.25	1.00	4.25	0.25	5.75	1.50	4.50	5.00	5.00	6.75	3.25	1.25	6.00	-0.160156	0.136719	1.000488	4.900000	7.070000	2.450000	528.00	0.045540	-0.178042
3.10	0.50	1.00	0.00	0.25	0.00	0.00	0.25	0.00	0.00	0.00	0.00	0.00	0.00	0.00	0.25	0.00	0.254883	0.519043	1.030762	19.879999	-71.750000	21.070000	22.00	0.000000	0.000000	2.25	3.25	1.75	3.50	1.00	4.25	0.25	5.75	1.75	4.75	5.00	5.25	6.75	3.50	1.50	6.50	-0.159668	0.143066	1.000488	4.690000	6.720000	2.170000	530.00	0.061046	-0.175731
3.11	0.50	0.75	0.00	0.00	0.00	0.00	0.25	0.00	0.00	0.00	0.00	0.00	0.00	0.00	0.00	0.00	0.138672	0.606445	1.023438	31.500000	-78.750000	43.540001	15.00	0.000000	0.000000	1.50	2.75	1.50	3.50	1.00	4.25	0.25	5.75	1.75	5.00	5.25	5.25	7.75	3.50	1.50	7.00	-0.162598	0.152832	1.000977	3.850000	5.950000	1.960000	532.00	0.077170	-0.184473
3.12	0.50	0.75	0.25	0.00	0.00	0.00	0.25	0.00	0.00	0.00	0.00	0.00	0.00	0.00	0.00	0.00	0.088379	0.626465	1.020508	36.820000	-78.959999	59.290001	17.00	0.000000	0.000000	1.50	2.25	1.25	3.25	1.00	4.00	0.25	5.25	2.00	5.00	5.25	5.25	7.75	3.50	1.75	7.25	-0.161621	0.150879	1.003418	3.360000	5.530000	1.820000	520.00	0.090152	-0.179766
3.13	0.50	1.00	0.00	0.00	0.00	0.00	0.25	0.00	0.00	0.00	0.00	0.00	0.00	0.00	0.25	0.00	0.031250	0.618652	1.017090	41.369999	-77.209999	76.720001	19.00	0.000000	0.000000	1.50	1.75	0.75	3.00	0.50	3.25	0.00	5.25	2.00	5.00	5.25	5.75	7.75	3.50	1.75	8.00	-0.159180	0.147461	0.996582	2.940000	5.670000	1.820000	501.00	0.108924	-0.188480
3.14	0.50	0.75	0.00	0.00	0.00	0.00	0.25	0.00	0.00	0.00	0.00	0.00	0.00	0.00	0.25	0.00	-0.018555	0.586914	0.985840	44.939999	-72.800003	94.080002	17.00	0.000000	0.000000	1.25	1.25	0.75	2.50	0.50	2.50	0.00	5.25	2.00	5.25	5.50	6.00	8.00	3.75	2.25	8.50	-0.161621	0.151855	1.000977	2.590000	5.810000	1.680000	500.00	0.130877	-0.186674
3.15	0.75	0.50	0.00	0.00	0.00	0.00	0.25	0.00	0.00	0.00	0.00	0.00	0.00	0.00	0.25	0.00	-0.071777	0.549316	0.937988	48.020000	-64.820000	110.320000	17.00	0.000000	0.000000	0.75	1.00	1.00	2.50	0.50	2.00	0.25	5.25	1.75	5.50	5.50	6.00	8.25	4.00	2.25	8.50	-0.166504	0.154297	1.007812	2.380000	6.440000	1.610000	498.00	0.139750	-0.185536
3.16	0.25	0.00	0.00	0.00	0.00	0.00	0.25	0.00	0.00	0.00	0.00	0.00	0.00	0.25	0.00	0.00	-0.108887	0.495117	0.873535	51.170002	-52.920002	124.389999	8.00	0.000000	0.000000	0.50	1.25	0.50	2.00	0.50	2.00	0.25	5.25	2.00	5.50	6.00	6.00	8.25	4.25	2.25	9.00	-0.167480	0.150879	1.006836	2.310000	7.140000	1.330000	499.00	0.152107	-0.185059
3.17	0.00	0.00	0.00	0.00	0.00	0.00	0.25	0.00	0.00	0.00	0.00	0.00	0.00	0.25	0.00	0.00	-0.156738	0.453613	0.822266	56.000000	-36.680000	136.149994	5.00	0.000000	0.000000	0.00	0.75	0.25	1.75	0.50	1.75	0.25	4.75	2.50	5.50	6.00	6.50	8.00	4.50	2.25	9.50	-0.175781	0.152344	1.011230	2.520000	8.330000	1.190000	489.00	0.174534	-0.179450
3.18	0.00	0.00	0.00	0.00	0.00	0.00	0.25	0.00	0.00	0.00	0.00	0.00	0.00	0.25	0.00	0.00	-0.200684	0.416504	0.820312	62.930000	-17.150000	146.020004	5.00	0.000000	0.000000	0.00	0.00	0.50	2.00	0.50	1.50	0.25	4.75	2.50	6.00	6.25	6.75	8.00	4.75	2.50	9.75	-0.169922	0.152832	1.016602	3.080000	10.080000	0.700000	501.00	0.182599	-0.174426
3.19	0.25	0.00	0.00	0.00	0.00	0.00	0.25	0.00	0.00	0.00	0.00	0.00	0.00	0.00	0.00	0.00	-0.239746	0.364258	0.970215	68.669998	2.730000	154.139999	6.00	0.000000	0.000000	0.25	0.00	0.25	1.75	0.50	1.25	0.25	4.75	2.75	6.50	6.25	6.50	8.00	4.75	2.50	10.50	-0.179688	0.158691	1.016602	4.130000	12.250000	0.280000	505.00	0.188286	-0.169241
3.20	0.00	0.00	0.00	0.00	0.00	0.00	0.25	0.00	0.00	0.00	0.00	0.00	0.00	0.25	0.00	0.00	-0.251953	0.194824	1.317871	60.760002	15.120000	160.649994	5.00	0.000000	0.000000	0.50	0.00	0.00	1.25	0.50	1.25	0.00	4.75	2.75	7.00	6.75	6.75	8.00	5.00	2.75	10.50	-0.175293	0.164551	1.013672	5.460000	14.840000	-0.280000	512.00	0.196027	-0.167700
3.21	0.00	0.00	0.00	0.00	0.00	0.00	0.25	0.00	0.00	0.00	0.00	0.00	0.00	0.25	0.00	0.00	-0.224609	0.099609	1.582520	39.340000	13.370000	165.970001	5.00	0.000000	0.000000	0.00	0.00	0.00	1.00	0.25	1.00	0.00	4.25	2.75	7.00	7.00	6.75	8.00	5.00	2.75	10.75	-0.186523	0.160645	1.013184	6.650000	17.430000	-0.910000	497.00	0.211016	-0.167656
3.22	0.00	0.25	0.00	0.00	0.00	0.00	0.25	0.00	0.00	0.00	0.00	0.00	0.00	0.50	0.00	0.00	-0.204590	0.112305	1.870605	16.799999	-5.110000	169.889999	9.00	0.000000	0.000000	0.00	0.00	0.00	1.00	0.25	1.00	0.00	4.25	2.75	7.00	7.25	7.00	8.00	5.25	2.75	11.25	-0.191406	0.157227	1.016113	7.630000	20.510000	-1.540000	506.00	0.212580	-0.167406
3.23	0.00	0.00	0.00	0.00	0.00	0.00	0.25	0.00	0.00	0.00	0.00	0.00	0.00	0.50	0.25	0.00	-0.200684	0.157227	1.981445	11.130000	-40.880001	172.479996	10.00	0.000000	0.000000	0.00	0.00	0.00	0.75	0.00	0.75	0.00	4.00	3.00	7.25	7.25	7.00	8.00	5.25	3.00	11.25	-0.189453	0.161621	1.013672	8.120000	23.799999	-1.680000	503.00	0.221450	-0.162055
3.24	0.00	0.00	0.00	0.00	0.00	0.00	0.25	0.00	0.00	0.00	0.00	0.00	0.00	0.00	0.00	0.00	-0.340332	-0.113770	1.756836	27.160000	-82.739998	170.800003	3.00	0.000000	0.000000	0.00	0.00	0.00	0.75	0.00	0.50	0.00	4.00	3.25	7.75	7.50	7.25	8.00	5.50	3.50	11.75	-0.195312	0.156250	1.012695	8.890000	27.370001	-1.750000	522.00	0.226658	-0.156086
3.25	0.00	0.00	0.00	0.00	0.00	0.00	0.25	0.00	0.00	0.00	0.00	0.00	0.00	0.00	0.00	0.00	-0.340332	-0.113770	1.756836	41.439999	-118.020004	161.490005	3.00	0.000000	0.000000	0.00	0.00	0.00	0.75	0.00	1.00	0.00	3.75	3.25	8.00	7.75	7.00	8.00	5.50	3.50	11.75	-0.200195	0.165527	1.010254	9.870000	30.660000	-1.820000	526.00	0.224804	-0.153817
3.26	0.00	0.00	0.00	0.00	0.00	0.00	0.25	0.00	0.00	0.00	0.00	0.00	0.00	0.25	0.00	0.00	-0.540039	-0.250488	1.338867	29.960001	-151.619995	130.690002	5.00	0.000000	0.000000	0.00	0.00	0.00	0.50	0.00	0.75	0.00	3.75	3.00	8.50	7.75	7.50	8.00	5.75	3.50	12.25	-0.212402	0.157715	1.013184	10.500000	34.020000	-2.030000	532.00	0.230106	-0.154203
3.27	0.00	0.00	0.00	0.00	0.00	0.00	0.25	0.00	0.00	0.00	0.00	0.00	0.00	0.25	0.00	0.00	-0.540039	-0.250488	1.338867	29.960001	-151.619995	130.690002	5.00	0.000000	0.000000	0.00	0.00	0.00	0.75	0.00	1.00	0.00	3.50	3.25	9.00	8.00	7.50	8.00	6.75	3.50	12.50	-0.216797	0.163086	1.005859	11.130000	37.099998	-2.380000	553.00	0.230651	-0.144872
3.28	0.00	0.00	0.00	0.00	0.00	0.00	0.00	0.00	0.00	0.00	0.00	0.00	0.00	0.25	0.25	0.00	-0.725098	-0.103027	1.110840	10.010000	-147.559998	95.199997	4.00	0.000000	0.000000	0.00	0.00	0.00	0.75	0.00	1.00	0.00	3.00	3.50	9.25	8.25	7.75	8.00	6.75	3.75	13.00	-0.218262	0.174316	1.005859	11.060000	39.689999	-2.800000	561.00	0.235053	-0.139693
3.29	0.00	0.00	0.00	0.00	0.00	0.00	0.25	0.00	0.00	0.00	0.00	0.00	0.00	0.25	0.25	0.00	-0.854004	-0.017090	1.066406	9.940000	-140.839996	79.800003	8.00	0.000000	0.000000	0.00	0.00	0.00	0.00	0.00	0.50	0.00	2.75	3.50	9.25	8.00	7.75	8.00	7.25	4.00	13.00	-0.228027	0.166504	1.003906	10.710000	42.560001	-3.290000	549.00	0.249360	-0.133314
3.30	0.00	0.00	0.00	0.00	0.00	0.00	0.25	0.00	0.00	0.00	0.00	0.00	0.00	0.25	0.00	0.00	-0.974121	0.045898	1.031250	13.160000	-133.699997	67.269997	5.00	0.000000	0.000000	0.00	0.00	0.00	0.00	0.00	0.75	0.00	2.50	3.50	9.00	8.50	7.50	8.25	7.75	4.25	13.25	-0.237793	0.178711	1.008301	10.010000	45.220001	-4.060000	557.00	0.251014	-0.131494
3.31	0.00	0.00	0.00	0.00	0.00	0.00	0.00	0.00	0.00	0.00	0.00	0.00	0.00	0.25	0.00	0.00	-1.089844	0.100586	1.024414	18.410000	-128.169998	58.450001	2.00	0.000000	0.000000	0.00	0.00	0.00	0.25	0.00	0.50	0.00	2.25	3.50	9.25	8.50	7.50	8.00	7.75	4.50	13.50	-0.241211	0.173828	1.011230	8.890000	47.599998	-4.970000	558.00	0.253198	-0.127843
3.32	0.00	0.00	0.00	0.00	0.00	0.00	0.25	0.00	0.00	0.00	0.00	0.00	0.00	0.00	0.00	0.00	-1.200684	0.085449	0.985840	25.969999	-125.580002	53.830002	3.00	0.000000	0.000000	0.00	0.00	0.00	0.00	0.00	0.00	0.00	2.00	3.75	9.50	8.50	7.75	7.75	8.75	4.50	13.75	-0.255859	0.178711	1.003418	7.350000	50.680000	-5.880000	562.00	0.263360	-0.117240
3.33	0.00	0.00	0.00	0.00	0.00	0.00	0.25	0.00	0.00	0.00	0.00	0.00	0.00	0.00	0.25	0.00	-1.315430	0.008301	0.838379	32.270000	-122.430000	53.619999	6.00	0.000000	0.000000	0.00	0.00	0.00	0.00	0.00	0.00	0.00	1.75	4.00	9.50	9.00	7.75	7.00	9.00	4.50	14.00	-0.263672	0.179688	1.004395	5.530000	53.619999	-6.860000	563.00	0.266429	-0.109210
3.34	0.00	0.00	0.00	0.00	0.00	0.00	0.25	0.00	0.00	0.00	0.00	0.00	0.00	0.00	0.25	0.00	-1.435059	-0.090820	0.651367	31.360001	-113.889999	55.860001	6.00	0.000000	0.000000	0.00	0.00	0.00	0.00	0.00	0.25	0.00	1.50	4.00	9.50	9.00	7.50	6.75	9.25	5.00	14.00	-0.271484	0.179199	1.006348	4.130000	56.980000	-7.630000	565.00	0.268612	-0.104929
3.35	0.00	0.00	0.00	0.00	0.00	0.00	0.25	0.00	0.00	0.00	0.00	0.00	0.00	0.00	0.00	0.00	-1.533691	-0.133301	0.478516	26.250000	-98.629997	59.080002	3.00	0.000000	0.000000	0.00	0.00	0.00	0.00	0.00	0.00	0.00	1.25	4.00	9.50	9.00	7.25	6.50	9.25	5.00	14.00	-0.289551	0.179688	0.994629	3.080000	65.940002	-8.750000	554.00	0.272885	-0.100264
3.36	0.00	0.00	0.00	0.00	0.00	0.00	0.25	0.00	0.00	0.00	0.00	0.00	0.00	0.00	0.00	0.00	-1.620605	-0.169922	0.372070	19.740000	-78.190002	61.250000	3.00	0.000000	0.000000	0.00	0.00	0.00	0.00	0.00	0.00	0.00	1.00	3.75	9.75	9.00	7.00	6.50	10.00	5.25	14.25	-0.289551	0.179688	0.994629	3.080000	65.940002	-8.750000	557.00	0.277152	-0.096391
3.37	0.00	0.00	0.00	0.00	0.00	0.00	0.25	0.00	0.00	0.00	0.00	0.00	0.00	0.25	0.00	0.00	-1.666504	-0.196777	0.285645	13.860000	-55.160000	60.970001	5.00	0.000000	0.000000	0.00	0.00	0.00	0.00	0.00	0.00	0.00	1.00	4.00	9.75	9.00	7.00	6.50	9.75	5.25	14.25	-0.314453	0.175293	1.000000	2.310000	76.510002	-9.240000	558.00	0.276565	-0.095362
3.38	0.25	0.00	0.00	0.00	0.00	0.00	0.25	0.00	0.00	0.00	0.00	0.00	0.00	0.25	0.00	0.00	-1.699707	-0.219238	0.273926	8.610000	-31.219999	57.260002	8.00	0.000000	0.000000	0.00	0.00	0.00	0.00	0.00	0.00	0.00	0.75	4.25	9.75	9.00	6.75	6.50	10.00	5.00	14.25	-0.314453	0.175293	1.000000	2.310000	76.510002	-9.240000	555.00	0.278476	-0.089739
3.39	0.00	0.00	0.00	0.00	0.00	0.00	0.25	0.00	0.00	0.00	0.00	0.00	0.00	0.00	0.00	0.00	-1.713379	-0.226562	0.290527	4.620000	-8.470000	51.799999	3.00	0.000000	0.000000	0.00	0.00	0.00	0.00	0.00	0.00	0.00	0.50	4.25	9.75	9.00	6.75	6.25	10.00	5.25	14.25	-0.348633	0.158203	0.998535	1.050000	88.760002	-10.430000	552.00	0.281265	-0.086461
3.40	0.00	0.00	0.00	0.00	0.00	0.00	0.25	0.00	0.00	0.00	0.00	0.00	0.00	0.00	0.00	0.00	-1.643555	-0.201172	0.388184	-1.260000	33.459999	42.000000	3.00	0.000000	0.000000	0.00	0.00	0.00	0.00	0.00	0.00	0.00	0.50	4.25	9.75	9.00	6.75	6.00	9.75	5.50	14.25	-0.360840	0.183105	1.013672	0.210000	94.989998	-11.060000	551.00	0.281756	-0.086020
3.41	0.00	0.00	0.00	0.00	0.00	0.00	0.25	0.00	0.00	0.00	0.00	0.00	0.00	0.00	0.00	0.00	-1.643555	-0.201172	0.388184	-1.260000	33.459999	42.000000	3.00	0.000000	0.000000	0.00	0.00	0.00	0.00	0.00	0.00	0.00	0.50	4.50	9.75	8.50	6.75	6.00	10.00	5.50	14.25	-0.375000	0.180176	0.975098	-0.280000	101.430000	-11.900000	551.00	0.282568	-0.082866
3.42	0.00	0.00	0.00	0.00	0.00	0.00	0.25	0.00	0.00	0.00	0.00	0.00	0.00	0.00	0.00	0.00	-1.565918	-0.163574	0.504395	-3.500000	50.610001	40.389999	3.00	0.000000	0.000000	0.00	0.00	0.00	0.00	0.00	0.00	0.00	0.25	4.50	9.75	8.50	6.75	5.75	10.25	5.50	14.25	-0.386230	0.185059	0.971191	-0.980000	108.010002	-13.300000	547.00	0.285317	-0.078593
3.43	1.25	1.00	0.25	0.25	0.00	0.00	0.25	0.00	0.00	0.00	0.00	0.00	0.00	0.00	0.00	0.00	-0.331543	-0.365723	1.350098	-62.650002	115.919998	47.389999	29.00	0.000000	0.000000	0.00	0.00	0.00	0.00	0.00	0.00	0.00	0.25	4.25	9.75	8.50	6.50	5.50	10.25	5.75	14.25	-0.413574	0.182617	0.977539	-1.400000	114.940002	-14.980000	542.00	0.286798	-0.078183
3.44	3.75	3.75	0.50	1.25	0.00	0.00	0.25	0.00	0.00	0.00	0.00	0.00	0.00	0.00	0.00	0.00	0.518066	-0.171387	1.452637	-56.209999	96.110001	42.770000	88.00	-0.364604	-0.032851	0.00	0.00	0.00	0.00	0.00	0.00	0.00	0.25	4.75	10.00	8.50	6.25	5.50	10.50	5.75	14.25	-0.434082	0.177246	0.976562	-3.010000	122.500000	-16.379999	550.00	0.287065	-0.071871
3.45	4.50	5.25	0.75	2.50	0.00	0.00	0.25	0.00	0.00	0.00	0.00	0.00	0.00	0.00	0.00	0.00	0.163574	-0.353516	0.484863	-64.750000	85.540001	33.180000	123.00	-0.362282	-0.055400	0.00	0.00	0.00	0.00	0.00	0.00	0.00	0.25	4.75	10.00	8.50	6.00	5.25	10.75	5.50	14.00	-0.453125	0.187012	0.996094	-5.530000	130.339996	-17.500000	544.00	0.287602	-0.067953
3.46	6.00	7.25	1.75	3.50	0.00	0.00	0.25	0.00	0.00	0.00	0.00	0.00	0.00	0.25	0.00	0.00	-0.959961	-0.325195	1.294922	-74.340004	129.639999	10.080000	176.00	-0.352347	-0.051426	0.00	0.00	0.00	0.00	0.00	0.00	0.00	0.25	5.00	9.75	8.50	6.00	5.25	10.75	5.75	13.50	-0.471191	0.187988	0.982910	-8.260000	139.369995	-18.969999	544.00	0.287840	-0.065584
3.47	7.25	8.75	2.00	4.25	0.00	0.00	0.25	0.00	0.00	0.00	0.00	0.00	0.00	0.25	0.00	0.00	-0.334961	-0.382324	1.559082	-125.790001	179.130005	-23.240000	211.00	-0.355706	-0.053787	0.00	0.00	0.00	0.00	0.00	0.00	0.00	0.25	5.00	10.00	8.00	6.00	5.25	10.75	5.75	13.25	-0.503418	0.200195	1.001953	-11.690000	149.940002	-21.210001	541.00	0.288015	-0.063996
3.48	8.75	11.25	3.25	5.50	0.00	0.25	0.25	0.00	0.00	0.00	0.00	0.00	0.00	0.00	0.00	0.00	-0.339355	0.004883	2.227539	-87.779999	165.899994	-20.860001	272.00	-0.359194	-0.058832	0.00	0.00	0.00	0.00	0.00	0.00	0.00	0.25	5.00	10.00	8.00	6.00	4.75	10.75	5.50	13.00	-0.535645	0.210938	1.009766	-15.190001	161.000000	-24.360001	533.00	0.288190	-0.060355
3.49	10.50	12.75	3.75	6.75	0.00	0.50	0.25	0.00	0.00	0.00	0.00	0.00	0.00	0.25	0.00	0.25	-0.306641	-0.104004	1.681641	-49.700001	131.529999	-10.010000	324.00	-0.350442	-0.059731	0.00	0.00	0.00	0.00	0.00	0.00	0.00	0.25	5.25	10.25	7.75	5.75	4.50	10.50	5.25	12.50	-0.573242	0.208496	1.035156	-18.620001	172.690002	-27.860001	525.00	0.287547	-0.054604
3.50	11.25	13.00	4.00	7.75	0.00	1.00	0.25	0.25	0.00	0.00	0.00	0.00	0.00	0.50	0.25	0.00	-0.175293	-0.009277	1.404785	-28.139999	120.470001	-6.160000	358.00	-0.336675	-0.064741	0.00	0.00	0.00	0.00	0.00	0.00	0.00	0.25	5.25	10.25	7.75	5.75	4.25	10.25	5.00	11.75	-0.620117	0.216309	1.059570	-21.980000	185.710007	-31.500000	515.00	0.286442	-0.051894
3.51	11.25	13.25	4.50	8.75	0.25	2.75	0.25	0.50	0.00	0.00	0.00	0.00	0.25	0.25	0.25	0.00	-0.205078	0.074707	2.026855	-46.200001	104.440002	-5.530000	398.00	-0.323862	-0.081670	0.00	0.00	0.00	0.00	0.00	0.00	0.00	0.00	5.25	10.25	7.50	5.25	4.25	10.00	5.00	11.00	-0.636719	0.234863	1.073730	-25.340000	198.800003	-35.279999	498.00	0.288546	-0.045786
3.52	11.25	12.75	4.50	9.00	0.25	3.75	0.25	0.50	0.00	0.00	0.25	0.25	0.25	0.00	0.25	0.00	-0.149902	0.058105	1.268555	-41.020000	67.480003	-1.960000	409.00	-0.315668	-0.089023	0.00	0.00	0.00	0.00	0.00	0.00	0.00	0.00	5.25	10.00	7.00	5.00	4.00	10.00	4.75	10.00	-0.681152	0.257324	1.115723	-27.090000	211.889999	-39.970001	479.00	0.288978	-0.039667
3.53	10.75	12.00	4.50	9.00	0.50	4.00	0.25	0.75	0.00	0.00	0.00	0.00	0.50	0.25	0.25	0.25	-0.059570	0.102539	1.020996	-40.320000	58.450001	-0.630000	407.00	-0.306677	-0.092760	0.00	0.00	0.00	0.00	0.00	0.00	0.00	0.00	5.25	9.75	7.00	5.00	3.75	9.75	4.25	9.00	-0.763184	0.244629	1.205566	-27.230000	224.419998	-45.639999	463.00	0.287219	-0.035901
