# Measurement Wed, 01 Mar 2023 - 21:26:23.432 (01:01.432) SN8508 SN8509 Size 4, normal
# No Name, No Comment, No tags
# time	left pressure 1[N/cm²]	left pressure 2[N/cm²]	left pressure 3[N/cm²]	left pressure 4[N/cm²]	left pressure 5[N/cm²]	left pressure 6[N/cm²]	left pressure 7[N/cm²]	left pressure 8[N/cm²]	left pressure 9[N/cm²]	left pressure 10[N/cm²]	left pressure 11[N/cm²]	left pressure 12[N/cm²]	left pressure 13[N/cm²]	left pressure 14[N/cm²]	left pressure 15[N/cm²]	left pressure 16[N/cm²]	left acceleration X[g]	left acceleration Y[g]	left acceleration Z[g]	left angular X[dps]	left angular Y[dps]	left angular Z[dps]	left total force[N]	left center of pressure X[-0.5...+0.5]	left center of pressure Y[-0.5...+0.5]	right pressure 1[N/cm²]	right pressure 2[N/cm²]	right pressure 3[N/cm²]	right pressure 4[N/cm²]	right pressure 5[N/cm²]	right pressure 6[N/cm²]	right pressure 7[N/cm²]	right pressure 8[N/cm²]	right pressure 9[N/cm²]	right pressure 10[N/cm²]	right pressure 11[N/cm²]	right pressure 12[N/cm²]	right pressure 13[N/cm²]	right pressure 14[N/cm²]	right pressure 15[N/cm²]	right pressure 16[N/cm²]	right acceleration X[g]	right acceleration Y[g]	right acceleration Z[g]	right angular X[dps]	right angular Y[dps]	right angular Z[dps]	right total force[N]	right center of pressure X[-0.5...+0.5]	right center of pressure Y[-0.5...+0.5]	right steps[]	left steps[]
0.00	3.25	3.25	2.50	4.00	0.50	2.75	0.00	2.25	0.25	1.00	0.75	1.50	2.00	0.50	0.00	0.75	-0.160156	0.139160	0.978516	-1.680000	1.890000	0.770000	245.00	-0.138405	-0.158572	2.25	2.25	4.25	5.50	2.75	3.25	0.25	1.25	2.50	1.75	1.25	0.75	0.75	0.50	0.50	1.00	-0.160156	0.113770	1.001953	-1.610000	-3.780000	3.850000	305.00	-0.098003	-0.067977		
0.01	3.50	3.25	2.75	4.00	0.50	2.75	0.00	2.50	0.00	0.75	0.75	1.75	2.75	0.50	0.00	0.75	-0.161621	0.140625	0.975586	-1.680000	1.960000	0.770000	257.00	-0.138079	-0.172259	2.25	2.25	4.25	5.50	2.75	4.25	0.50	1.25	2.50	1.75	1.25	0.75	0.75	0.50	0.50	1.00	-0.166504	0.111816	0.999512	-1.540000	-3.710000	3.850000	319.00	-0.097745	-0.070979		
0.02	3.50	3.25	2.75	4.00	0.50	2.50	0.00	2.50	0.00	0.75	0.50	1.75	2.75	0.50	0.00	0.75	-0.158691	0.144531	0.977539	-1.610000	1.890000	0.770000	252.00	-0.141400	-0.171800	2.25	2.25	4.50	5.75	2.75	4.25	0.50	1.25	2.50	1.75	1.00	0.75	0.75	0.50	0.75	1.00	-0.161621	0.110352	0.997559	-1.470000	-3.640000	3.850000	324.00	-0.099165	-0.070659		
0.03	3.50	3.00	2.50	4.00	0.50	2.50	0.00	2.50	0.25	1.00	0.50	1.75	2.75	0.75	0.00	0.75	-0.159668	0.142578	0.978027	-1.610000	1.890000	0.770000	254.00	-0.125379	-0.164335	2.50	2.75	4.50	5.75	2.75	4.25	0.25	1.25	2.50	1.75	1.00	0.75	0.50	0.50	0.50	1.00	-0.161621	0.110352	0.997559	-1.470000	-3.640000	3.850000	322.00	-0.112941	-0.071470		
0.04	3.25	3.25	2.50	4.00	0.50	2.50	0.00	2.50	0.00	1.00	0.50	1.50	2.75	0.75	0.00	0.75	-0.154785	0.144043	0.973633	-1.400000	1.750000	0.770000	249.00	-0.133031	-0.170958	2.25	2.75	4.50	5.50	3.00	4.00	0.25	1.25	2.50	1.75	1.00	0.75	0.50	0.50	0.50	1.00	-0.160645	0.104492	0.996094	-1.680000	-3.710000	3.780000	318.00	-0.109187	-0.068974		
0.05	3.25	3.25	2.50	4.00	0.50	2.25	0.00	2.50	0.00	1.00	0.50	1.50	2.50	1.00	0.00	0.75	-0.157715	0.145020	0.977051	-1.400000	1.750000	0.840000	246.00	-0.130960	-0.164810	2.50	2.50	4.25	5.75	3.25	3.75	0.25	1.25	2.50	1.75	1.25	0.75	0.50	0.50	0.50	1.00	-0.160156	0.110840	0.997559	-1.680000	-3.780000	3.920000	320.00	-0.106776	-0.067248		
0.06	3.50	3.25	2.75	3.75	0.50	2.75	0.00	2.50	0.25	0.75	0.50	1.50	2.75	1.00	0.00	0.75	-0.149414	0.141113	0.974609	-1.540000	1.960000	0.840000	256.00	-0.130282	-0.160565	2.50	2.75	4.25	5.75	3.00	3.25	0.25	1.00	2.50	1.75	1.25	0.75	0.50	0.75	0.50	1.00	-0.161133	0.112793	0.995605	-1.540000	-3.780000	3.850000	313.00	-0.105798	-0.060548		
0.07	3.50	3.00	2.75	4.00	0.50	2.75	0.00	2.25	0.25	0.75	0.50	1.50	2.75	0.75	0.00	1.00	-0.159180	0.145020	0.982910	-1.540000	1.820000	0.770000	252.00	-0.132854	-0.161343	2.25	2.00	4.25	5.50	3.00	3.75	0.25	1.25	2.25	2.00	1.25	0.75	0.75	0.75	0.50	1.00	-0.161621	0.106445	0.997559	-1.540000	-3.710000	3.780000	312.00	-0.094559	-0.070284		
0.08	3.50	3.25	2.75	4.00	0.50	2.75	0.00	2.25	0.25	1.00	0.50	1.75	2.50	0.75	0.00	0.75	-0.159180	0.147949	0.974121	-1.750000	1.890000	0.770000	256.00	-0.133260	-0.157474	2.25	2.25	4.25	5.75	3.00	4.00	0.25	1.25	2.25	1.75	1.50	0.75	0.50	0.50	0.50	1.00	-0.162109	0.110840	0.996094	-1.540000	-3.640000	3.850000	315.00	-0.103611	-0.074174		
0.09	3.25	3.00	2.75	4.25	0.50	2.50	0.00	2.50	0.25	0.75	0.50	1.75	2.50	0.75	0.00	0.75	-0.157227	0.146484	0.979492	-1.820000	1.890000	0.700000	253.00	-0.131570	-0.164733	2.50	2.75	4.25	6.00	3.00	4.25	0.25	1.50	2.75	1.75	1.50	0.75	0.50	0.50	0.75	1.00	-0.161133	0.114746	1.000488	-1.610000	-3.710000	3.990000	338.00	-0.100371	-0.073771		
0.10	2.75	3.25	2.75	4.25	0.50	2.50	0.00	2.50	0.25	0.75	0.75	1.75	2.50	0.50	0.00	0.50	-0.161621	0.142578	0.977539	-1.400000	1.820000	0.840000	249.00	-0.132110	-0.171406	2.25	2.00	4.25	5.75	2.75	4.25	0.25	1.50	2.75	1.75	1.25	0.75	0.50	0.50	0.75	1.00	-0.159668	0.114258	0.997559	-1.610000	-3.640000	3.920000	322.00	-0.092727	-0.072867		
0.11	3.50	3.25	2.50	4.00	0.50	2.50	0.00	2.50	0.25	1.00	0.75	1.75	2.50	0.75	0.00	0.50	-0.161621	0.144043	0.974121	-1.260000	1.750000	0.910000	256.00	-0.129159	-0.160851	2.00	2.50	4.25	5.50	3.25	4.25	0.50	1.25	2.50	1.75	1.50	0.75	0.50	0.50	0.75	1.00	-0.162598	0.107910	0.998535	-1.680000	-3.570000	3.850000	326.00	-0.093527	-0.068885		
0.12	3.50	3.25	2.25	4.25	0.50	2.75	0.00	2.50	0.25	1.00	0.75	1.75	2.50	0.75	0.25	1.00	-0.161133	0.148438	0.978027	-1.330000	1.960000	0.770000	263.00	-0.119993	-0.165675	2.25	2.25	4.25	5.75	3.25	4.25	0.50	1.25	2.50	1.75	1.50	0.75	0.75	0.50	0.50	1.00	-0.162109	0.111328	0.998047	-1.680000	-3.640000	3.710000	329.00	-0.097255	-0.070459		
0.13	3.50	3.25	2.50	4.25	0.50	3.00	0.00	2.50	0.25	0.75	0.50	1.75	2.50	1.00	0.00	0.75	-0.164551	0.141602	0.973633	-1.400000	1.890000	0.700000	262.00	-0.131346	-0.164251	1.75	2.00	4.50	5.50	3.00	4.25	0.50	1.50	2.50	1.75	1.50	0.75	0.75	0.50	0.50	1.00	-0.166992	0.110352	1.000000	-1.750000	-3.500000	3.850000	323.00	-0.089402	-0.074489		
0.14	3.25	3.25	2.75	4.00	0.50	2.75	0.00	2.50	0.25	1.00	0.50	1.50	2.25	0.75	0.00	0.75	-0.161621	0.144531	0.975098	-1.470000	1.890000	0.770000	253.00	-0.134720	-0.159475	1.50	2.50	4.75	5.50	3.00	4.25	0.50	1.50	2.25	1.75	1.50	0.75	0.50	0.50	0.50	1.00	-0.164062	0.111816	0.998047	-1.820000	-3.640000	3.920000	322.00	-0.097584	-0.076580		
0.15	3.50	3.00	2.75	4.00	0.50	2.75	0.00	2.50	0.25	1.00	0.75	1.75	2.25	0.50	0.00	0.75	-0.163574	0.138672	0.974121	-1.330000	1.960000	0.770000	256.00	-0.132451	-0.160382	1.75	2.50	4.25	5.50	3.00	4.25	0.50	1.25	2.25	1.75	1.50	0.75	0.50	0.50	0.50	1.00	-0.164551	0.111328	1.001465	-1.750000	-3.570000	3.920000	316.00	-0.098098	-0.074403		
0.16	3.50	3.25	2.75	4.00	0.50	2.75	0.00	2.50	0.00	1.00	0.50	1.75	2.50	0.75	0.00	0.50	-0.158691	0.143066	0.969238	-1.400000	1.820000	0.840000	255.00	-0.138593	-0.164963	2.25	2.25	4.25	5.25	2.75	4.25	0.50	1.50	2.25	1.75	1.50	0.75	0.50	0.75	0.50	1.00	-0.158691	0.115234	0.998535	-1.750000	-3.640000	3.780000	319.00	-0.094760	-0.072879		
0.17	3.25	3.25	2.50	4.00	0.50	2.75	0.00	2.50	0.25	1.00	0.50	1.50	2.50	0.75	0.25	0.75	-0.160645	0.142090	0.974121	-1.400000	1.820000	0.770000	255.00	-0.125888	-0.163603	2.00	2.00	4.25	5.50	3.25	4.00	0.50	1.50	2.75	1.75	1.25	0.75	0.50	0.75	0.75	0.75	-0.163574	0.107910	0.996094	-1.680000	-3.640000	3.710000	324.00	-0.085840	-0.063577		
0.18	3.25	3.25	2.50	4.00	0.50	2.75	0.00	2.50	0.00	1.00	0.50	1.50	2.25	0.75	0.00	0.75	-0.154297	0.147949	0.978027	-1.470000	1.750000	0.700000	247.00	-0.138103	-0.167294	1.75	2.00	4.25	5.75	3.50	4.25	0.50	1.50	2.75	1.75	1.25	0.75	0.50	0.50	0.50	1.00	-0.158691	0.114746	1.000488	-1.680000	-3.500000	3.780000	326.00	-0.090824	-0.068966		
0.19	3.25	3.25	2.50	3.75	0.50	2.25	0.00	2.75	0.25	1.00	0.75	1.75	2.25	0.75	0.00	0.75	-0.159180	0.148438	0.979980	-1.470000	1.960000	0.700000	251.00	-0.123084	-0.163209	2.00	2.25	4.25	5.50	3.25	4.25	0.50	1.50	2.50	1.75	1.00	0.75	0.50	0.50	0.50	1.00	-0.164062	0.111328	1.003418	-1.680000	-3.640000	3.780000	320.00	-0.099074	-0.070948		
0.20	3.25	3.25	2.50	3.75	0.50	2.75	0.00	2.75	0.50	0.75	0.50	1.75	2.25	1.00	0.00	0.50	-0.156738	0.144531	0.975098	-1.330000	1.890000	0.840000	255.00	-0.124132	-0.159431	2.25	2.00	4.25	5.50	3.00	4.25	0.50	1.50	2.50	1.75	1.00	0.75	0.50	0.50	0.50	1.00	-0.166016	0.111816	0.996094	-1.680000	-3.500000	3.710000	318.00	-0.099030	-0.070024		
0.21	3.00	2.50	2.75	4.00	0.50	2.75	0.00	2.50	0.50	0.50	0.50	1.75	2.25	0.75	0.00	0.50	-0.160645	0.141602	0.975098	-1.330000	1.890000	0.770000	244.00	-0.126461	-0.161495	2.00	2.00	4.25	5.25	3.00	4.25	0.50	1.50	2.50	1.75	1.25	0.75	0.50	0.50	0.50	1.00	-0.166016	0.107910	1.004395	-1.680000	-3.640000	3.850000	316.00	-0.092785	-0.070483		
0.22	3.00	3.00	2.75	3.75	0.50	2.75	0.00	2.50	0.25	0.50	0.50	1.75	2.25	0.75	0.00	0.75	-0.158203	0.144043	0.973145	-1.120000	1.750000	0.840000	244.00	-0.132026	-0.167058	2.50	2.25	4.50	5.25	3.00	4.25	0.50	1.50	2.50	1.75	1.25	0.75	0.50	0.50	0.50	1.25	-0.163574	0.109375	0.997559	-1.680000	-3.710000	3.780000	326.00	-0.098997	-0.068178		
0.23	3.25	3.25	2.50	3.75	0.50	3.00	0.00	2.50	0.25	0.75	0.50	1.50	2.25	0.50	0.00	0.75	-0.158691	0.143066	0.978516	-1.190000	1.680000	0.840000	246.00	-0.139955	-0.167373	3.00	2.25	4.50	5.75	3.00	4.00	0.50	1.50	2.50	1.75	1.25	0.75	0.50	0.50	0.50	1.25	-0.165039	0.111328	0.998535	-1.750000	-3.780000	3.850000	334.00	-0.105754	-0.066495		
0.24	3.25	3.00	2.50	4.00	0.50	3.00	0.00	2.50	0.25	1.00	0.50	1.50	2.50	0.50	0.00	1.00	-0.161133	0.146484	0.983398	-1.050000	1.820000	0.910000	252.00	-0.130594	-0.168826	2.50	2.00	4.25	5.75	3.50	3.75	0.50	1.50	2.75	1.75	1.25	0.75	0.50	0.75	0.50	1.25	-0.166016	0.107910	0.997070	-1.750000	-3.780000	3.850000	332.00	-0.091929	-0.061567		
0.25	3.25	3.00	2.50	4.00	0.50	3.00	0.00	2.50	0.50	1.00	0.75	1.75	2.75	0.50	0.00	0.75	-0.158691	0.145020	0.977539	-1.260000	1.890000	0.700000	261.00	-0.119786	-0.165968	2.25	2.00	4.25	5.50	3.50	3.75	0.50	1.50	2.75	1.75	1.25	0.75	0.75	0.50	0.50	1.25	-0.159668	0.109863	0.995117	-1.750000	-3.780000	3.920000	327.00	-0.089593	-0.065419		
0.26	3.25	3.25	2.50	4.00	0.50	3.00	0.00	2.50	0.25	1.00	0.75	1.75	2.75	0.50	0.25	0.75	-0.160645	0.145996	0.979004	-1.120000	1.680000	0.910000	262.00	-0.121609	-0.170228	2.25	2.25	4.25	5.50	3.25	3.75	0.25	1.50	2.75	1.75	1.25	0.75	0.50	0.50	0.75	1.25	-0.164551	0.113770	1.000488	-1.820000	-3.710000	3.850000	323.00	-0.091164	-0.068061		
0.27	3.25	3.25	3.00	4.00	0.50	3.50	0.00	2.50	0.50	1.00	0.75	1.50	2.75	0.75	0.25	0.75	-0.158691	0.146484	0.986816	-0.910000	1.610000	0.840000	275.00	-0.119823	-0.158848	2.50	2.50	4.50	5.50	3.00	3.75	0.25	1.50	2.75	1.75	1.25	0.75	0.50	0.75	0.50	1.00	-0.164551	0.113770	1.000488	-1.820000	-3.710000	3.850000	326.00	-0.099036	-0.064659		
0.28	3.50	2.50	3.00	4.00	0.50	3.50	0.00	2.50	0.50	1.00	1.00	1.50	2.50	0.75	0.00	0.75	-0.166016	0.147949	0.974609	-1.330000	1.890000	0.560000	269.00	-0.119149	-0.154375	2.50	2.50	4.75	5.50	3.25	3.25	0.25	1.50	2.75	1.75	1.50	0.75	0.50	0.75	0.50	1.25	-0.166016	0.110352	0.992188	-1.750000	-3.640000	3.780000	330.00	-0.095624	-0.060681		
0.29	3.50	3.00	2.75	3.75	0.50	3.00	0.00	2.50	0.25	1.00	0.75	1.50	2.50	1.00	0.00	1.00	-0.159180	0.144531	0.974609	-1.400000	1.820000	0.770000	261.00	-0.121468	-0.157562	2.25	2.25	4.50	5.50	3.50	3.25	0.25	1.50	2.75	1.75	1.50	0.75	0.50	0.75	0.50	1.25	-0.166016	0.110352	0.992188	-1.750000	-3.640000	3.780000	325.00	-0.090204	-0.061467		
0.30	2.50	3.25	2.50	3.75	0.50	2.75	0.00	2.50	0.50	0.75	0.75	1.75	2.50	1.00	0.00	0.75	-0.166992	0.144043	0.976562	-1.470000	1.890000	0.770000	250.00	-0.109647	-0.166580	2.00	2.00	4.50	5.75	3.25	4.00	0.50	1.50	2.50	1.75	1.25	0.75	0.50	0.50	0.50	1.00	-0.165039	0.105957	0.996094	-1.820000	-3.710000	3.850000	323.00	-0.096967	-0.069035		
0.31	2.75	3.25	2.75	4.00	0.50	2.75	0.00	2.50	0.25	0.75	0.75	1.75	2.50	0.75	0.00	0.75	-0.155762	0.149414	0.978027	-1.470000	1.820000	0.700000	253.00	-0.124118	-0.169878	2.25	2.00	4.50	5.50	3.00	4.00	0.25	1.25	2.50	1.75	1.25	0.75	0.50	0.50	0.50	1.25	-0.162598	0.111328	1.000488	-1.820000	-3.430000	3.850000	315.00	-0.098611	-0.068352		
0.32	3.25	3.00	2.75	4.00	0.50	2.75	0.00	2.75	0.50	1.00	0.75	1.75	2.25	0.75	0.00	0.75	-0.155762	0.140137	0.968262	-1.400000	1.820000	0.630000	262.00	-0.119907	-0.158400	2.50	2.00	4.25	6.00	2.75	3.75	0.50	1.50	2.75	1.75	1.00	0.75	0.50	0.50	0.75	1.25	-0.165527	0.116699	0.998535	-1.820000	-3.500000	3.850000	325.00	-0.094333	-0.066872		
0.33	3.25	3.00	2.75	3.75	0.50	2.75	0.00	2.75	0.50	0.75	0.75	1.50	2.75	0.75	0.00	0.75	-0.155762	0.140137	0.968262	-1.400000	1.820000	0.630000	259.00	-0.120198	-0.163199	2.50	2.25	4.25	6.00	3.25	4.00	0.50	1.50	2.75	1.75	1.25	0.75	0.75	0.75	0.50	1.25	-0.161621	0.107422	0.994141	-1.820000	-3.570000	3.850000	338.00	-0.094056	-0.068255		
0.34	3.25	3.00	2.50	3.75	0.50	2.75	0.00	2.75	0.25	1.00	0.75	1.50	2.75	0.75	0.00	1.00	-0.160645	0.144043	0.978516	-1.330000	2.030000	0.700000	257.00	-0.117464	-0.169436	2.25	2.50	4.75	5.75	3.25	4.25	0.25	1.25	2.75	1.75	1.25	0.75	0.50	0.50	0.50	1.25	-0.167969	0.112793	1.001953	-1.820000	-3.500000	3.780000	332.00	-0.102756	-0.067025		
0.35	3.25	3.00	2.50	3.75	0.50	2.75	0.00	2.50	0.25	1.00	0.50	1.50	2.75	0.50	0.00	1.00	-0.162598	0.148926	0.980957	-1.260000	1.960000	0.630000	249.00	-0.126393	-0.169567	1.75	2.25	4.75	5.50	2.75	3.25	0.25	1.25	2.75	1.75	1.25	0.75	0.50	0.75	0.50	1.00	-0.162598	0.107910	0.999512	-1.750000	-3.500000	3.710000	308.00	-0.091150	-0.060667		
0.36	3.25	3.25	2.50	3.75	0.50	2.50	0.00	2.50	0.50	1.00	0.75	1.50	2.75	0.50	0.00	0.75	-0.156738	0.142578	0.972168	-1.400000	2.030000	0.770000	253.00	-0.123090	-0.162046	2.00	2.25	4.50	5.50	2.75	3.75	0.25	1.25	2.75	1.75	1.25	0.75	0.75	0.75	0.50	1.00	-0.164062	0.109375	1.000977	-1.820000	-3.500000	3.640000	315.00	-0.091397	-0.066494		
0.37	3.50	3.25	2.50	3.75	0.50	2.50	0.00	2.75	0.50	0.75	0.75	1.75	2.75	0.50	0.00	0.75	-0.161621	0.147461	0.972168	-1.330000	1.960000	0.770000	259.00	-0.124414	-0.165976	2.00	2.50	4.25	5.50	2.75	4.00	0.25	1.25	2.75	1.75	1.25	0.75	0.75	0.75	0.75	1.00	-0.170410	0.108398	0.990723	-1.820000	-3.430000	3.710000	320.00	-0.088853	-0.070118		
0.38	3.50	2.50	2.50	3.75	0.50	2.50	0.00	2.75	0.25	1.00	0.75	1.50	2.75	0.50	0.25	0.75	-0.154785	0.140137	0.970703	-1.260000	1.890000	0.630000	252.00	-0.116253	-0.166994	1.75	2.25	4.50	5.50	3.25	4.25	0.25	1.25	2.75	2.00	1.25	0.75	0.50	0.75	0.75	1.00	-0.162109	0.111328	0.995605	-1.960000	-3.570000	3.710000	326.00	-0.086057	-0.065695		
0.39	3.25	3.00	2.50	3.75	0.50	2.25	0.00	2.50	0.00	1.00	0.75	1.75	2.75	0.75	0.00	0.50	-0.160156	0.149414	0.976562	-1.330000	2.030000	0.700000	245.00	-0.124468	-0.169374	2.25	2.75	4.50	5.50	3.25	4.25	0.25	1.00	2.75	2.00	1.50	0.75	0.75	0.75	0.75	1.00	-0.164062	0.113281	1.004395	-1.820000	-3.500000	3.710000	336.00	-0.091698	-0.063825		
0.40	3.25	2.50	2.50	3.75	0.50	2.75	0.00	2.75	0.00	1.00	0.75	1.75	2.50	0.75	0.00	0.75	-0.157227	0.140137	0.978027	-1.400000	2.170000	0.560000	249.00	-0.118436	-0.172986	2.50	3.00	4.25	5.25	3.00	4.00	0.25	1.00	2.75	2.00	1.25	0.75	0.50	0.75	0.50	1.00	-0.163574	0.109375	0.995117	-1.890000	-3.500000	3.780000	323.00	-0.100171	-0.059571		
0.41	3.50	3.00	2.50	3.75	0.50	2.75	0.00	2.75	0.25	0.75	0.50	1.75	2.75	0.50	0.25	0.75	-0.157715	0.148926	0.976074	-1.470000	2.100000	0.630000	256.00	-0.124994	-0.171840	2.50	2.75	4.50	5.50	3.75	3.75	0.50	1.00	2.75	2.00	1.25	0.75	0.50	0.50	0.50	1.00	-0.165527	0.108398	0.994629	-1.890000	-3.500000	3.780000	333.00	-0.102147	-0.052895		
0.42	3.25	3.25	2.50	3.75	0.50	2.75	0.00	2.50	0.25	0.75	0.75	1.75	2.75	0.75	0.25	1.00	-0.159180	0.145508	0.975586	-1.260000	1.960000	0.630000	258.00	-0.116660	-0.168924	2.25	2.75	4.50	5.50	3.75	3.75	0.50	1.25	2.75	1.75	1.25	0.75	0.50	0.50	0.50	1.00	-0.164551	0.109375	0.998047	-1.960000	-3.570000	3.780000	331.00	-0.101513	-0.058443		
0.43	3.00	2.50	2.50	3.75	0.50	3.00	0.00	2.75	0.25	0.75	0.75	1.50	2.75	0.75	0.00	0.75	-0.159180	0.140137	0.974121	-1.470000	1.960000	0.560000	249.00	-0.115853	-0.174676	2.25	2.50	4.25	5.25	3.50	3.75	0.50	1.25	2.75	2.25	1.25	0.75	0.75	0.50	0.50	1.00	-0.161133	0.109863	0.998535	-1.960000	-3.640000	3.920000	328.00	-0.090020	-0.059222		
0.44	3.25	2.50	2.50	3.75	0.50	3.50	0.00	2.75	0.50	0.75	0.75	1.75	3.00	0.75	0.00	0.75	-0.162598	0.147461	0.979492	-1.330000	1.960000	0.700000	264.00	-0.109771	-0.172162	2.50	2.00	4.25	5.00	3.75	3.25	0.50	1.25	3.00	2.00	1.25	0.75	0.75	0.50	0.50	1.00	-0.170410	0.107422	0.993164	-1.960000	-3.640000	3.780000	322.00	-0.085054	-0.048875		
0.45	3.00	2.25	2.50	3.75	0.50	3.00	0.00	2.75	0.50	1.00	0.50	2.00	3.00	0.75	0.00	1.00	-0.159668	0.150879	0.976074	-1.400000	1.960000	0.700000	258.00	-0.098392	-0.173025	2.00	2.25	4.25	5.50	3.50	3.75	0.50	1.25	3.25	2.00	1.00	0.75	0.50	0.50	0.50	1.00	-0.164551	0.108398	0.993164	-2.030000	-3.640000	3.710000	326.00	-0.087114	-0.052918		
0.46	2.50	2.25	2.25	3.75	0.50	2.25	0.00	2.50	0.50	1.00	0.50	2.00	2.75	0.75	0.00	1.00	-0.163086	0.144043	0.978027	-1.330000	1.890000	0.700000	238.00	-0.092345	-0.172698	2.25	2.25	4.25	5.75	3.00	3.75	0.50	1.50	3.00	2.00	1.25	0.75	0.50	0.75	0.75	1.00	-0.168945	0.110840	0.993652	-2.030000	-3.640000	3.780000	333.00	-0.083833	-0.060582		
0.47	2.50	2.50	2.00	3.75	0.50	3.50	0.00	2.75	0.25	1.00	0.50	1.75	2.75	1.00	0.25	1.00	-0.155273	0.147949	0.977051	-1.330000	1.820000	0.770000	252.00	-0.093469	-0.183813	2.25	2.50	4.50	5.50	3.50	3.75	0.50	1.50	2.75	2.00	1.25	0.75	0.50	0.75	0.75	1.00	-0.162109	0.109863	0.999023	-1.890000	-3.640000	3.780000	337.00	-0.089409	-0.060040		
0.48	2.50	3.00	2.00	4.00	0.50	3.50	0.00	3.00	0.25	1.00	0.50	1.75	2.75	1.00	0.25	1.00	-0.156250	0.145508	0.975586	-1.260000	2.100000	0.560000	262.00	-0.099432	-0.186679	2.50	2.50	4.75	5.50	3.50	3.75	0.25	1.25	2.75	2.00	1.25	0.75	0.50	0.75	0.50	1.00	-0.168457	0.110840	0.997559	-1.890000	-3.640000	3.850000	333.00	-0.099188	-0.057235		
0.49	3.25	2.50	2.00	4.00	0.50	4.25	0.00	2.75	0.25	1.00	0.75	2.00	2.75	1.00	0.25	0.75	-0.156250	0.145508	0.975586	-1.260000	2.100000	0.560000	273.00	-0.101525	-0.178809	2.25	2.00	4.25	5.25	3.00	3.00	0.50	1.25	3.00	1.75	1.25	0.75	0.50	0.75	0.50	1.00	-0.168457	0.110840	0.997559	-1.890000	-3.640000	3.850000	310.00	-0.083748	-0.049167		
0.50	3.25	2.50	2.25	3.75	0.50	4.25	0.00	2.75	0.25	1.00	0.75	2.00	2.75	0.75	0.00	0.75	-0.161133	0.145508	0.975098	-1.260000	2.310000	0.630000	269.00	-0.109662	-0.179289	2.00	2.25	4.25	5.25	3.00	4.25	0.50	1.00	2.75	2.00	1.00	0.75	0.50	0.75	0.50	1.00	-0.166504	0.110840	0.998535	-1.960000	-3.570000	3.780000	316.00	-0.090187	-0.057883		
0.51	3.25	3.25	2.25	4.00	0.50	4.00	0.00	3.00	0.50	1.00	0.50	2.00	2.75	0.75	0.00	1.00	-0.158203	0.148438	0.985840	-0.980000	2.030000	0.630000	280.00	-0.113449	-0.177500	2.00	2.00	4.25	5.25	3.00	4.25	0.50	1.00	3.00	2.00	1.00	0.75	0.50	0.75	0.50	1.00	-0.166504	0.107422	0.991699	-2.030000	-3.640000	3.850000	317.00	-0.084740	-0.054023		
0.52	3.25	3.00	2.25	4.00	0.50	3.50	0.00	3.00	0.25	1.00	0.50	2.00	2.75	0.75	0.00	1.00	-0.161133	0.149414	0.981445	-0.980000	2.100000	0.700000	270.00	-0.114470	-0.180838	1.75	1.50	4.00	5.25	2.75	3.75	0.25	0.75	3.00	2.00	1.00	0.75	0.50	0.75	0.50	1.00	-0.165039	0.113770	0.993164	-1.890000	-3.640000	3.850000	293.00	-0.077156	-0.051770		
0.53	2.75	2.50	2.25	3.75	0.50	4.00	0.00	3.00	0.00	1.00	0.75	1.75	2.75	0.75	0.00	1.00	-0.162598	0.148926	0.976074	-1.190000	2.170000	0.770000	261.00	-0.107522	-0.191241	2.00	2.00	4.25	5.00	3.50	4.25	0.25	1.00	3.00	1.75	1.00	0.75	0.50	0.75	0.75	1.00	-0.165039	0.113770	0.993164	-1.890000	-3.640000	3.850000	316.00	-0.084282	-0.055209		
0.54	3.00	3.00	2.25	3.75	0.50	4.00	0.00	3.00	0.00	1.00	0.75	2.00	2.75	0.75	0.00	1.00	-0.162598	0.145508	0.981445	-1.120000	2.170000	0.700000	270.00	-0.112115	-0.189145	1.75	2.00	4.25	5.00	3.50	4.25	0.50	1.00	3.00	1.75	1.00	0.75	0.50	0.75	0.75	1.00	-0.163086	0.110840	0.997070	-1.820000	-3.570000	3.710000	317.00	-0.080087	-0.053158		
0.55	3.25	3.25	2.25	3.75	0.50	4.00	0.00	3.00	0.25	1.00	1.00	2.25	2.50	0.75	0.00	1.00	-0.161133	0.149414	0.979492	-1.120000	2.100000	0.700000	280.00	-0.109278	-0.179842	2.00	2.00	4.25	6.00	3.25	4.25	0.50	1.00	2.75	1.75	1.00	0.75	0.50	0.75	0.50	1.00	-0.159668	0.107910	0.992188	-1.890000	-3.640000	3.780000	321.00	-0.095393	-0.061055		
0.56	3.25	2.50	2.25	3.75	0.50	4.00	0.00	3.00	0.00	1.00	1.00	2.25	2.75	1.00	0.00	1.00	-0.165039	0.149902	0.978516	-1.190000	2.100000	0.630000	275.00	-0.100458	-0.184614	2.25	2.00	4.25	6.00	3.50	4.25	0.25	1.00	2.75	1.75	1.25	0.75	0.50	0.75	0.50	1.00	-0.169922	0.112305	1.001465	-1.820000	-3.570000	3.780000	325.00	-0.097383	-0.062533		
0.57	3.25	2.25	2.00	3.75	0.50	4.00	0.00	3.00	0.00	1.00	1.00	2.00	2.75	0.75	0.00	0.75	-0.165527	0.141602	0.979004	-0.980000	2.100000	0.700000	264.00	-0.105135	-0.188466	2.00	2.25	4.00	5.50	3.50	3.75	0.25	1.50	2.75	2.00	1.50	0.50	0.50	0.75	0.50	1.00	-0.169922	0.112305	1.001465	-1.820000	-3.570000	3.780000	322.00	-0.087619	-0.064723		
0.58	3.25	2.50	2.25	3.75	0.50	3.75	0.00	3.00	0.25	1.00	0.75	1.75	2.75	1.00	0.00	0.75	-0.163086	0.142090	0.981934	-1.120000	2.030000	0.630000	267.00	-0.106652	-0.176651	2.25	2.00	4.25	6.00	3.50	3.75	0.50	1.50	3.00	2.00	1.50	0.75	0.50	0.75	0.50	1.25	-0.164551	0.110352	0.999023	-1.750000	-3.640000	3.780000	339.00	-0.083564	-0.060505		
0.59	3.25	2.25	2.25	3.75	0.50	3.50	0.00	3.00	0.00	1.00	1.00	2.00	2.75	1.25	0.00	1.00	-0.163086	0.146973	0.977539	-1.190000	2.170000	0.490000	267.00	-0.096041	-0.179467	2.50	2.00	4.25	5.75	3.25	3.00	0.50	1.25	3.25	2.00	1.50	0.75	0.50	0.75	0.50	1.25	-0.164062	0.113281	0.993164	-1.820000	-3.710000	3.780000	329.00	-0.080093	-0.047594		
0.60	2.50	2.25	2.25	3.75	0.50	3.50	0.00	2.75	0.25	1.00	1.00	2.25	2.75	1.25	0.00	1.00	-0.159668	0.145996	0.979980	-0.980000	1.890000	0.770000	262.00	-0.081988	-0.180343	2.50	2.00	4.25	6.00	3.25	4.25	0.50	1.25	3.00	2.00	1.50	0.75	0.50	0.75	0.50	1.00	-0.162109	0.108887	0.996582	-1.820000	-3.640000	3.850000	340.00	-0.088851	-0.059015		
0.61	3.25	2.50	2.25	3.50	0.50	3.50	0.00	2.75	0.25	1.00	0.75	2.25	2.75	1.00	0.25	1.00	-0.161621	0.150391	0.983887	-0.840000	1.890000	0.770000	267.00	-0.093208	-0.174423	2.00	2.00	4.25	5.75	3.25	4.25	0.50	1.25	3.00	1.75	1.25	0.75	0.50	0.75	0.50	1.00	-0.167480	0.113281	0.991699	-1.890000	-3.710000	3.850000	328.00	-0.087478	-0.060648		
0.62	3.50	3.00	2.00	3.50	0.50	2.75	0.00	2.75	0.25	0.75	0.50	2.00	3.00	1.00	0.00	1.00	-0.157715	0.144531	0.972656	-1.190000	2.170000	0.630000	256.00	-0.109586	-0.176161	1.75	2.00	4.25	6.00	3.25	4.25	0.50	1.25	3.00	1.75	1.50	0.75	0.50	0.75	0.50	1.00	-0.167480	0.106445	0.995605	-1.750000	-3.710000	3.780000	330.00	-0.084461	-0.063512		
0.63	3.25	2.50	2.00	3.75	0.50	2.75	0.00	3.00	0.25	0.75	0.75	2.00	3.00	1.00	0.00	1.00	-0.163086	0.147949	0.978516	-1.330000	2.100000	0.630000	257.00	-0.099161	-0.181773	1.50	2.00	4.00	6.00	3.00	4.25	0.50	1.00	3.00	1.75	1.50	0.75	0.50	0.75	0.50	1.00	-0.167480	0.110352	0.997070	-1.820000	-3.570000	3.850000	319.00	-0.081115	-0.063419		
0.64	2.75	2.50	2.00	3.75	0.50	2.00	0.00	3.00	0.25	0.75	0.75	1.75	2.75	1.00	0.25	1.00	-0.159180	0.149414	0.974121	-1.260000	2.030000	0.560000	243.00	-0.091838	-0.180225	1.50	2.00	3.75	5.50	3.00	3.75	0.50	1.00	3.00	2.00	1.50	0.75	0.50	0.75	0.50	1.00	-0.163574	0.105957	0.999512	-1.890000	-3.570000	3.780000	309.00	-0.072621	-0.057707		
0.65	2.50	2.25	2.25	4.00	0.50	3.00	0.00	3.00	0.25	0.75	0.75	2.00	3.50	1.25	0.00	1.00	-0.158691	0.148926	0.975098	-1.260000	2.100000	0.560000	262.00	-0.084373	-0.190006	2.25	2.00	4.00	5.75	3.25	3.25	0.25	1.00	3.00	2.00	1.25	0.75	0.50	0.75	0.50	1.00	-0.162109	0.108398	0.999023	-1.890000	-3.710000	3.850000	313.00	-0.086567	-0.052590		
0.66	2.75	2.00	2.25	4.00	0.50	3.75	0.00	3.00	0.25	1.00	0.75	2.00	3.50	1.25	0.00	1.00	-0.158203	0.145020	0.976562	-1.260000	2.030000	0.560000	272.00	-0.083597	-0.187642	2.25	2.00	4.25	5.75	3.25	3.25	0.25	1.00	3.00	2.00	1.50	0.75	0.50	0.50	0.50	1.00	-0.164551	0.108398	1.002930	-1.820000	-3.640000	3.990000	316.00	-0.088731	-0.053347		
0.67	2.25	2.50	2.00	3.75	0.50	2.50	0.00	3.00	0.25	1.00	0.75	2.00	3.25	1.25	0.00	0.75	-0.163574	0.145996	0.980469	-1.540000	2.030000	0.560000	250.00	-0.080075	-0.188292	1.75	2.00	4.00	5.50	3.00	3.00	0.25	1.00	3.00	2.00	1.75	0.75	0.50	0.50	0.50	1.00	-0.166016	0.108887	0.996582	-1.890000	-3.640000	3.850000	303.00	-0.077389	-0.055302		
0.68	2.50	2.50	2.00	3.75	0.50	4.00	0.00	3.00	0.25	1.00	0.75	2.25	3.25	1.25	0.00	1.00	-0.165527	0.151367	0.976562	-1.330000	2.170000	0.630000	271.00	-0.082271	-0.191878	1.75	1.75	4.25	5.50	3.00	3.25	0.25	1.25	3.00	1.75	1.50	0.75	0.50	0.50	0.50	1.00	-0.167969	0.110352	0.994141	-1.890000	-3.570000	3.850000	305.00	-0.081350	-0.059390		
0.69	3.25	1.75	2.00	3.75	0.25	4.00	0.00	3.00	0.25	1.00	0.75	2.25	3.25	1.25	0.00	1.00	-0.161133	0.145020	0.973145	-1.330000	2.100000	0.630000	270.00	-0.082495	-0.186920	2.25	1.75	4.25	5.50	2.75	2.75	0.50	1.00	3.00	1.75	1.25	0.75	0.50	0.50	0.50	0.75	-0.166016	0.107910	0.998535	-1.960000	-3.570000	3.850000	299.00	-0.088127	-0.045274		
0.70	3.00	2.25	2.00	3.75	0.50	4.00	0.00	3.00	0.25	1.00	0.75	2.00	3.00	1.25	0.00	1.00	-0.160156	0.148438	0.976074	-1.400000	1.960000	0.700000	270.00	-0.089760	-0.183881	2.50	1.75	4.25	5.25	2.75	2.50	0.50	1.00	3.25	1.75	1.25	0.75	0.50	0.50	0.50	1.00	-0.165527	0.111328	0.997559	-1.890000	-3.500000	3.710000	300.00	-0.083118	-0.038605		
0.71	2.50	2.50	1.75	3.75	0.50	3.50	0.00	3.00	0.25	1.00	0.75	1.75	3.00	1.25	0.00	1.00	-0.156738	0.151367	0.979492	-1.400000	1.890000	0.700000	257.00	-0.086508	-0.189072	2.25	1.75	4.00	5.00	3.00	2.00	0.50	0.75	3.25	1.75	1.25	0.75	0.50	0.75	0.50	1.00	-0.168457	0.109375	0.994629	-1.960000	-3.500000	3.710000	289.00	-0.073786	-0.028711		
0.72	2.50	2.25	2.00	3.75	0.50	3.00	0.00	3.00	0.25	1.00	0.75	2.50	3.00	1.25	0.00	1.00	-0.158203	0.146484	0.971191	-1.540000	1.750000	0.630000	260.00	-0.076117	-0.187870	1.75	2.00	4.25	5.00	3.25	2.00	0.50	0.75	3.25	1.75	1.25	0.75	0.50	0.75	0.50	1.00	-0.165039	0.109863	0.997559	-1.960000	-3.570000	3.710000	291.00	-0.073033	-0.030129		
0.73	3.25	2.25	2.00	3.75	0.50	2.75	0.00	3.00	0.25	1.00	0.75	2.75	3.00	1.25	0.00	1.00	-0.161133	0.147949	0.979980	-1.400000	1.750000	0.700000	267.00	-0.081539	-0.180152	2.00	2.00	4.25	5.25	3.25	2.50	0.25	1.00	3.25	1.75	1.25	0.75	0.50	0.75	0.50	1.00	-0.166992	0.109375	1.002930	-1.890000	-3.500000	3.780000	301.00	-0.079797	-0.042000		
0.74	2.50	3.00	2.00	3.75	0.50	2.75	0.00	3.00	0.25	1.00	0.75	2.75	3.00	1.25	0.00	1.00	-0.164551	0.139648	0.978516	-1.820000	1.890000	0.630000	266.00	-0.080906	-0.187532	2.00	2.00	4.25	5.25	2.75	2.50	0.25	1.00	3.25	1.75	1.00	0.75	0.50	0.75	0.50	1.00	-0.159668	0.109863	0.991211	-1.890000	-3.570000	3.850000	294.00	-0.081512	-0.043164		
0.75	3.00	2.50	2.00	3.50	0.50	2.75	0.00	3.00	0.25	0.75	0.75	2.50	2.75	1.25	0.00	1.00	-0.161133	0.148926	0.975098	-1.610000	1.820000	0.700000	257.00	-0.086955	-0.181255	1.75	2.25	4.25	5.25	2.75	2.50	0.25	1.00	3.25	2.00	1.00	0.75	0.50	0.75	0.50	1.00	-0.167480	0.110352	0.996094	-1.890000	-3.780000	3.990000	296.00	-0.078733	-0.044395		
0.76	3.25	2.00	1.75	3.50	0.50	2.25	0.00	3.00	0.00	1.00	0.75	2.25	3.00	1.25	0.00	1.00	-0.157227	0.151855	0.974609	-1.330000	1.750000	0.700000	247.00	-0.083027	-0.183997	1.75	2.00	4.00	5.00	3.00	3.00	0.25	1.00	3.00	1.75	1.00	0.75	0.50	0.75	0.50	1.00	-0.163086	0.106445	0.998047	-1.540000	-4.270000	4.200000	291.00	-0.080565	-0.050291		
0.77	2.75	1.75	1.50	3.50	0.50	2.00	0.00	3.00	0.25	1.00	0.75	2.25	3.25	1.25	0.00	1.00	-0.160156	0.144043	0.976074	-1.610000	1.680000	0.700000	240.00	-0.064794	-0.188507	2.00	1.75	4.00	5.25	3.50	2.75	0.25	1.00	3.00	1.75	1.00	0.75	0.50	0.75	0.50	0.75	-0.163086	0.106445	0.998047	-1.540000	-4.270000	4.200000	295.00	-0.084539	-0.044778		
0.78	2.25	2.25	2.00	3.75	0.50	2.25	0.00	3.00	0.25	1.00	0.75	2.00	3.25	1.00	0.00	0.75	-0.165527	0.148926	0.975586	-1.890000	1.820000	0.700000	244.00	-0.080380	-0.190549	1.75	2.00	4.25	5.25	3.50	3.00	0.50	1.50	3.00	1.75	1.00	0.75	0.50	0.75	0.50	0.75	-0.167480	0.104004	0.998047	-1.120000	-4.830000	4.410000	310.00	-0.082920	-0.052051		
0.79	2.50	2.50	2.00	3.75	0.25	2.00	0.00	3.00	0.25	1.00	1.00	1.75	3.25	1.25	0.00	1.00	-0.165039	0.143066	0.975098	-1.400000	1.260000	0.910000	247.00	-0.078884	-0.185160	2.00	2.25	4.75	6.00	3.25	3.00	0.50	1.50	3.00	1.75	1.00	0.75	0.50	0.75	0.50	1.00	-0.166504	0.110352	0.995605	-0.350000	-5.460000	4.900000	326.00	-0.092961	-0.055271		
0.80	3.00	1.75	2.00	3.75	0.25	2.00	0.00	3.00	0.25	1.00	0.75	2.00	3.00	1.00	0.00	1.00	-0.159668	0.147461	0.979492	-0.980000	0.630000	1.050000	241.00	-0.082596	-0.182322	2.25	2.00	4.50	6.00	3.25	2.75	0.25	1.25	3.25	1.75	1.00	0.75	0.50	0.75	0.50	1.00	-0.162598	0.105469	0.995605	0.280000	-6.860000	5.460000	317.00	-0.090768	-0.049242		
0.81	3.00	2.00	2.00	3.75	0.50	2.25	0.00	3.25	0.00	0.75	0.50	2.25	2.75	1.00	0.00	1.00	-0.164062	0.149902	0.974609	-0.770000	0.210000	1.120000	244.00	-0.095125	-0.191057	2.25	2.00	4.75	5.75	3.50	4.25	0.25	1.50	3.00	1.75	1.00	0.75	0.50	0.75	0.50	0.75	-0.162598	0.105469	0.995605	0.280000	-6.860000	5.460000	334.00	-0.097613	-0.061508		
0.82	2.75	2.50	2.00	3.75	0.50	2.25	0.00	3.25	0.25	0.75	0.75	2.00	2.75	1.00	0.00	1.00	-0.159180	0.155273	0.981934	-0.700000	0.070000	1.190000	249.00	-0.093262	-0.186165	2.00	2.50	5.00	6.25	3.50	4.25	0.50	1.50	2.75	1.75	1.00	0.75	0.50	0.75	0.50	0.75	-0.171387	0.105957	0.994629	0.350000	-7.140000	5.810000	344.00	-0.104709	-0.065066		
0.83	3.00	2.25	2.00	3.75	0.50	2.75	0.00	3.00	0.00	0.75	0.75	1.75	2.75	0.75	0.00	0.75	-0.163086	0.149902	0.976562	-1.050000	-0.000000	1.330000	242.00	-0.109593	-0.189168	2.00	3.00	4.75	6.75	4.00	4.25	0.50	1.50	2.75	2.00	1.00	0.75	0.50	0.50	0.50	0.75	-0.166016	0.106934	1.000977	-0.140000	-7.980000	6.370000	356.00	-0.110642	-0.068307		
0.84	3.00	2.00	2.00	3.75	0.50	3.00	0.00	3.00	0.00	0.75	0.50	1.75	2.50	1.00	0.00	0.50	-0.170410	0.150391	0.984863	-1.750000	-0.350000	1.330000	239.00	-0.111211	-0.185057	2.50	3.25	5.00	7.00	4.00	4.25	0.50	2.00	2.75	1.75	1.00	0.75	0.50	0.50	0.50	0.75	-0.165527	0.110352	1.008301	-0.140000	-8.400000	6.790000	372.00	-0.118750	-0.073466		
0.85	3.25	2.50	2.25	4.25	0.50	2.75	0.00	3.00	0.00	0.75	0.50	1.75	2.75	1.00	0.00	0.50	-0.170410	0.150391	0.984863	-1.750000	-0.350000	1.330000	253.00	-0.121478	-0.181327	3.00	3.50	5.50	7.25	4.25	4.50	0.50	2.00	2.50	1.50	0.75	0.75	0.50	0.50	0.50	0.75	-0.162109	0.108398	1.004395	-0.280000	-8.820000	7.140000	384.00	-0.134497	-0.074259		
0.86	3.25	3.25	2.50	4.25	0.50	2.75	0.00	3.00	0.00	0.75	0.75	1.50	2.75	0.75	0.00	0.50	-0.170410	0.151367	0.986816	-2.660000	-0.420000	1.400000	259.00	-0.133959	-0.179335	3.00	3.75	5.50	7.75	4.25	4.50	0.50	1.75	2.50	1.50	0.75	0.75	0.50	0.75	0.50	0.75	-0.158203	0.107910	1.006348	-0.210000	-8.750000	7.490000	390.00	-0.136340	-0.072599		
0.87	3.25	3.25	2.75	4.25	0.50	2.75	0.00	2.75	0.00	0.50	0.50	1.50	2.50	0.75	0.00	0.50	-0.158203	0.147461	0.986328	-3.010000	-0.630000	1.330000	252.00	-0.146334	-0.174340	3.00	4.00	6.25	8.75	4.50	5.25	0.50	1.75	2.25	1.50	0.75	0.75	0.50	0.50	0.50	0.50	-0.153809	0.113281	1.006348	-0.140000	-8.610000	7.630000	413.00	-0.150990	-0.079543		
0.88	3.25	3.25	2.75	4.25	0.25	2.75	0.00	2.50	0.00	0.50	0.50	1.50	2.25	0.75	0.00	0.50	-0.156738	0.139160	0.982910	-3.640000	-0.700000	1.330000	244.00	-0.151045	-0.171316	3.50	4.00	6.25	9.25	5.25	5.50	0.50	1.75	2.00	1.75	0.75	0.75	0.50	0.50	0.50	0.50	-0.158691	0.115723	0.998535	-0.490000	-8.330000	7.560000	432.00	-0.155561	-0.079485		
0.89	3.25	3.25	2.75	4.50	0.25	2.75	0.00	2.50	0.00	0.50	0.50	1.50	2.25	0.50	0.00	0.50	-0.156250	0.142578	0.975586	-4.200000	-0.490000	1.120000	244.00	-0.156949	-0.174653	3.50	4.25	7.50	10.50	5.25	6.25	0.50	2.00	1.75	1.50	0.75	0.75	0.50	0.50	0.25	0.50	-0.154785	0.111816	1.003418	-0.770000	-7.910000	7.350000	463.00	-0.169858	-0.087638		
0.90	3.25	3.50	3.25	4.75	0.50	2.75	0.00	2.25	0.00	0.25	0.50	1.50	2.00	0.25	0.00	0.25	-0.160645	0.147949	0.985352	-4.200000	-0.350000	0.910000	246.00	-0.178148	-0.166193	3.75	4.75	7.75	10.75	5.00	6.50	0.50	2.00	1.75	1.25	0.75	0.50	0.50	0.50	0.25	0.50	-0.150879	0.117676	1.002930	-1.050000	-7.630000	7.070000	470.00	-0.178561	-0.088599		
0.91	3.50	3.50	3.25	4.75	0.25	2.75	0.00	2.00	0.00	0.25	0.50	1.25	1.75	0.25	0.00	0.25	-0.158203	0.145020	0.979980	-4.200000	-0.350000	0.770000	238.00	-0.190228	-0.158764	3.75	4.75	7.75	10.75	5.25	6.50	0.50	1.75	1.50	1.25	0.75	0.50	0.50	0.50	0.25	0.25	-0.152344	0.117676	0.999512	-1.260000	-7.000000	6.860000	465.00	-0.183767	-0.087254		
0.92	3.50	3.50	3.50	4.75	0.25	2.75	0.00	1.75	0.00	0.50	0.25	1.00	1.75	0.50	0.00	0.25	-0.158203	0.135254	0.978027	-4.760000	-0.140000	0.420000	236.00	-0.192636	-0.146667	4.00	5.25	8.00	11.25	5.25	6.50	0.50	1.75	1.25	1.00	0.75	0.50	0.50	0.50	0.25	0.50	-0.151367	0.109863	1.000977	-1.190000	-6.580000	6.650000	475.00	-0.191934	-0.091113		
0.93	3.50	3.75	3.50	4.75	0.50	2.75	0.00	1.75	0.00	0.25	0.25	1.00	1.50	0.25	0.00	0.25	-0.145996	0.137695	0.974609	-5.110000	0.210000	0.000000	234.00	-0.206441	-0.146771	4.50	5.50	8.00	11.25	5.25	6.75	0.50	1.75	1.25	1.00	0.75	0.50	0.50	0.50	0.25	0.50	-0.157227	0.112793	0.996582	-1.050000	-6.160000	6.510000	484.00	-0.194775	-0.090418		
0.94	3.75	3.75	3.50	5.00	0.50	2.00	0.00	1.50	0.00	0.50	0.00	0.75	1.50	0.25	0.00	0.25	-0.140625	0.144531	0.972168	-5.530000	0.420000	-0.350000	226.00	-0.218497	-0.133546	4.50	5.75	8.00	11.25	5.25	6.75	0.50	1.75	1.25	1.00	0.75	0.50	0.50	0.50	0.25	0.25	-0.150879	0.107422	0.998047	-0.980000	-5.950000	6.580000	485.00	-0.197168	-0.090172		
0.95	3.75	3.75	3.50	5.00	0.50	1.75	0.00	1.25	0.00	0.25	0.00	0.75	1.50	0.25	0.00	0.25	-0.138184	0.150391	0.975586	-6.440000	1.610000	-0.350000	218.00	-0.227566	-0.129984	4.25	5.75	8.00	12.50	5.25	7.00	0.50	2.00	1.00	0.75	0.50	0.25	0.25	0.25	0.25	0.25	-0.153809	0.112305	0.991211	-0.840000	-5.740000	6.510000	487.00	-0.209913	-0.099101		
0.96	3.50	3.75	3.50	5.00	0.50	1.75	0.00	1.25	0.00	0.25	0.00	1.00	1.25	0.00	0.00	0.00	-0.157715	0.143555	0.940918	-8.050000	3.360000	-0.420000	212.00	-0.233715	-0.133159	4.75	5.75	8.50	12.50	5.25	7.00	0.25	2.00	1.00	0.75	0.50	0.25	0.25	0.25	0.25	0.25	-0.151855	0.111816	1.002441	-0.490000	-5.810000	6.370000	493.00	-0.214397	-0.097569		
0.97	3.50	3.75	3.25	4.75	0.25	1.75	0.00	1.00	0.00	0.25	0.00	0.75	1.00	0.00	0.00	0.00	-0.151367	0.151855	0.978516	-8.610000	2.870000	-0.420000	197.00	-0.247413	-0.127475	4.75	5.75	8.50	12.25	5.25	7.25	0.50	1.50	1.00	0.75	0.50	0.50	0.25	0.50	0.25	0.25	-0.145996	0.111328	0.995117	-0.350000	-5.950000	6.160000	494.00	-0.209930	-0.091144		
0.98	3.75	3.75	3.25	4.75	0.25	1.50	0.00	0.75	0.00	0.25	0.00	0.75	1.25	0.25	0.00	0.00	-0.159180	0.150391	0.972168	-8.960000	2.870000	-0.070000	197.00	-0.243882	-0.118508	4.50	6.00	8.75	12.50	5.25	7.25	0.50	1.75	1.00	0.75	0.75	0.50	0.25	0.25	0.25	0.25	-0.151367	0.109863	0.993652	-0.210000	-6.370000	6.230000	503.00	-0.209530	-0.095391		
0.99	3.75	3.75	3.50	4.75	0.50	1.50	0.00	0.50	0.00	0.00	0.00	0.75	1.00	0.00	0.00	0.00	-0.153809	0.145508	0.966797	-9.660000	2.800000	0.000000	193.00	-0.263718	-0.110177	4.75	6.00	9.00	13.00	5.25	7.25	0.50	1.75	1.00	0.75	0.50	0.50	0.25	0.25	0.25	0.25	-0.159668	0.114746	0.995117	0.070000	-6.860000	6.160000	510.00	-0.213519	-0.094697		
1.00	3.50	3.75	3.50	4.75	0.50	1.50	0.00	0.50	0.00	0.25	0.00	0.50	0.75	0.00	0.00	0.00	-0.169434	0.143066	0.973145	-10.150000	1.890000	-0.420000	188.00	-0.266244	-0.104631	5.00	6.25	9.00	13.75	5.25	8.00	0.50	1.75	1.00	0.75	0.50	0.50	0.25	0.25	0.00	0.25	-0.154785	0.114746	0.996094	0.140000	-6.790000	6.090000	527.00	-0.218213	-0.098505		
1.01	3.50	3.75	3.75	5.00	0.25	1.25	0.00	0.50	0.00	0.25	0.00	0.50	0.75	0.00	0.00	0.00	-0.170410	0.130859	0.985840	-10.220000	1.330000	-0.630000	188.00	-0.269904	-0.103594	5.25	6.25	9.25	13.75	5.50	8.00	0.50	1.75	1.00	0.75	0.50	0.25	0.25	0.25	0.00	0.25	-0.156250	0.114746	0.997070	0.210000	-6.650000	5.880000	532.00	-0.220762	-0.095036		
1.02	3.50	3.75	4.00	4.75	0.50	1.25	0.00	0.50	0.00	0.25	0.00	0.50	0.50	0.00	0.00	0.00	-0.170410	0.130859	0.985840	-10.220000	1.330000	-0.630000	189.00	-0.272326	-0.093399	5.50	6.25	9.25	14.00	5.50	8.00	0.25	1.75	0.75	0.50	0.50	0.25	0.25	0.25	0.25	0.25	-0.148926	0.113770	1.006348	0.210000	-6.370000	5.740000	531.00	-0.225769	-0.099694		
1.03	4.00	4.00	4.25	4.75	0.50	1.25	0.00	0.25	0.00	0.25	0.00	0.50	0.50	0.00	0.00	0.00	-0.168945	0.128418	0.986328	-10.290000	-0.140000	-0.630000	195.00	-0.281623	-0.081546	5.25	6.75	9.25	14.00	5.50	8.00	0.25	2.00	0.75	0.50	0.50	0.25	0.25	0.00	0.25	0.25	-0.146484	0.113770	1.003906	0.420000	-5.880000	5.600000	534.00	-0.227431	-0.104057		
1.04	4.25	4.00	4.50	4.75	0.50	1.25	0.00	0.25	0.00	0.25	0.00	0.50	0.50	0.00	0.00	0.00	-0.161621	0.121582	0.971680	-9.660000	-1.470000	-0.630000	200.00	-0.282860	-0.077104	6.00	6.75	9.25	14.25	5.50	8.25	0.25	2.00	0.75	0.50	0.50	0.25	0.50	0.00	0.25	0.25	-0.147461	0.114258	1.003906	0.910000	-4.760000	5.530000	548.00	-0.228199	-0.103919		
1.05	4.25	4.25	4.50	5.50	0.75	1.25	0.00	0.25	0.00	0.25	0.00	0.25	0.50	0.00	0.00	0.00	-0.158691	0.127441	0.976074	-8.400000	-1.890000	-0.280000	209.00	-0.288158	-0.079132	6.25	6.75	9.25	14.00	5.50	8.25	0.25	2.00	0.75	0.50	0.25	0.50	0.50	0.00	0.00	0.25	-0.147461	0.114258	1.003906	0.910000	-4.760000	5.530000	546.00	-0.231557	-0.103331		
1.06	4.50	4.50	4.75	6.00	0.75	1.25	0.00	0.25	0.00	0.25	0.00	0.00	0.50	0.00	0.00	0.00	-0.154785	0.122070	0.975586	-7.070000	-2.450000	-0.350000	219.00	-0.295844	-0.076927	6.25	6.75	9.50	14.00	5.25	8.75	0.25	1.75	0.75	0.50	0.50	0.50	0.25	0.00	0.00	0.25	-0.144531	0.111328	1.002441	0.700000	-4.060000	5.390000	548.00	-0.232333	-0.101647		
1.07	4.50	4.75	4.75	6.50	0.75	1.25	0.00	0.25	0.00	0.00	0.00	0.00	0.50	0.00	0.00	0.00	-0.157715	0.136230	0.980469	-5.740000	-2.380000	0.000000	224.00	-0.302497	-0.082581	6.25	6.75	9.50	14.00	5.50	8.25	0.25	2.00	0.50	0.50	0.50	0.25	0.25	0.25	0.00	0.25	-0.143066	0.114746	0.986816	0.490000	-3.990000	5.040000	545.00	-0.233495	-0.101390		
1.08	4.50	4.75	5.25	6.75	0.75	1.25	0.00	0.25	0.00	0.00	0.00	0.00	0.25	0.00	0.00	0.00	-0.150391	0.127930	0.971680	-5.320000	-1.960000	0.000000	229.00	-0.305611	-0.077015	6.00	6.75	9.25	13.75	5.50	8.25	0.25	2.00	0.50	0.50	0.25	0.25	0.25	0.25	0.00	0.25	-0.145508	0.123047	0.999512	-0.070000	-3.150000	4.620000	535.00	-0.234393	-0.102585		
1.09	5.00	5.25	5.25	8.00	0.75	1.25	0.00	0.25	0.00	0.50	0.00	0.00	0.50	0.00	0.00	0.00	-0.147461	0.134766	0.981934	-4.900000	-1.050000	0.210000	258.00	-0.294584	-0.082632	6.00	6.50	9.25	13.75	5.50	8.00	0.25	1.75	0.50	0.50	0.50	0.25	0.25	0.25	0.00	0.25	-0.145508	0.123047	0.999512	-0.070000	-3.150000	4.620000	530.00	-0.233432	-0.099695		
1.10	5.50	5.25	5.25	8.00	0.75	1.25	0.00	0.25	0.00	0.50	0.00	0.00	0.25	0.00	0.00	0.00	-0.143555	0.123047	0.980957	-4.060000	-0.840000	0.700000	260.00	-0.300116	-0.076246	6.00	6.75	9.25	13.75	5.25	8.00	0.25	1.75	0.50	0.50	0.25	0.50	0.25	0.25	0.00	0.25	-0.148926	0.119141	0.993652	-0.910000	-2.730000	4.200000	529.00	-0.234733	-0.101542		
1.11	5.50	5.25	5.25	7.75	0.75	1.25	0.00	0.25	0.00	0.25	0.00	0.00	0.00	0.00	0.00	0.00	-0.143555	0.127930	0.981445	-3.430000	-0.560000	0.700000	253.00	-0.309008	-0.073057	6.00	6.75	9.25	13.75	5.00	7.25	0.25	1.75	0.75	0.50	0.25	0.50	0.00	0.25	0.00	0.25	-0.144043	0.124512	0.996094	-1.960000	-2.100000	3.850000	520.00	-0.235169	-0.096328		
1.12	5.50	5.25	5.25	7.50	0.75	1.50	0.00	0.25	0.00	0.25	0.00	0.00	0.25	0.00	0.00	0.00	-0.147949	0.121582	0.979492	-3.010000	-0.350000	0.560000	255.00	-0.303956	-0.076546	6.00	6.50	9.25	13.00	5.00	7.25	0.25	1.75	0.50	0.50	0.25	0.25	0.25	0.00	0.00	0.25	-0.144043	0.116211	0.989746	-2.450000	-1.890000	3.570000	505.00	-0.239572	-0.097867		
1.13	5.50	5.50	5.25	8.00	0.75	1.25	0.00	0.25	0.00	0.25	0.00	0.00	0.25	0.00	0.00	0.00	-0.139160	0.128418	0.972168	-2.450000	-0.140000	0.630000	260.00	-0.306004	-0.078255	6.00	6.50	9.25	13.00	5.00	7.00	0.25	1.75	0.50	0.50	0.25	0.25	0.25	0.00	0.00	0.25	-0.128418	0.166504	1.062988	-0.980000	-1.680000	3.430000	503.00	-0.240004	-0.097001		
1.14	5.00	5.50	5.25	8.25	1.00	1.25	0.00	0.25	0.00	0.50	0.00	0.00	0.00	0.00	0.00	0.00	-0.140625	0.131348	0.971191	-2.030000	1.120000	0.770000	261.00	-0.300969	-0.077490	6.00	6.50	9.25	12.50	5.00	7.00	0.25	1.50	0.50	0.50	0.25	0.25	0.25	0.25	0.00	0.25	-0.140625	0.114258	1.013184	-2.380000	-0.630000	3.220000	496.00	-0.238551	-0.092563		
1.15	5.50	5.50	5.50	7.75	1.00	1.50	0.00	0.25	0.00	0.50	0.00	0.00	0.00	0.00	0.00	0.00	-0.143066	0.136230	0.967773	-1.890000	2.940000	0.910000	265.00	-0.301313	-0.071608	6.25	6.25	9.00	12.50	5.00	7.00	0.25	1.50	0.50	0.50	0.25	0.25	0.25	0.25	0.00	0.25	-0.133301	0.115723	0.991211	-3.430000	0.140000	2.660000	494.00	-0.238442	-0.092224		
1.16	5.50	5.50	5.75	8.50	1.00	1.50	0.00	0.25	0.00	0.25	0.00	0.00	0.25	0.00	0.00	0.00	-0.149414	0.125000	0.971191	-1.680000	4.270000	1.190000	275.00	-0.301876	-0.078306	6.25	6.25	8.75	12.25	4.50	6.75	0.25	1.25	0.50	0.50	0.50	0.25	0.25	0.25	0.00	0.25	-0.131348	0.120605	0.996582	-2.870000	0.770000	1.820000	480.00	-0.238994	-0.091116		
1.17	5.50	5.50	5.75	8.75	1.00	1.50	0.00	0.25	0.00	0.25	0.00	0.00	0.50	0.00	0.00	0.00	-0.151855	0.123535	0.968750	-1.120000	5.110000	1.540000	280.00	-0.298388	-0.082354	6.00	6.00	8.75	12.25	4.50	6.50	0.25	1.25	0.75	0.50	0.50	0.25	0.50	0.00	0.00	0.25	-0.135742	0.117676	0.988281	-2.450000	2.030000	0.700000	476.00	-0.235695	-0.091185		
1.18	5.50	5.75	5.50	8.75	1.00	1.25	0.00	0.25	0.00	0.25	0.00	0.25	0.50	0.00	0.00	0.00	-0.152832	0.124023	0.974121	0.210000	5.040000	2.380000	279.00	-0.296494	-0.084701	5.50	5.75	8.00	10.75	4.25	5.75	0.25	1.25	0.75	0.50	0.25	0.50	0.50	0.00	0.00	0.25	-0.116211	0.114746	0.987793	-2.100000	4.410000	-0.840000	437.00	-0.232831	-0.090315		
1.19	5.50	6.00	5.75	8.75	1.00	1.50	0.00	0.50	0.00	0.50	0.00	0.25	0.25	0.00	0.00	0.00	-0.152832	0.124023	0.974121	0.210000	5.040000	2.380000	290.00	-0.291251	-0.085245	5.00	5.50	7.50	9.75	3.75	5.25	0.25	1.50	0.75	0.75	0.50	0.50	0.50	0.00	0.25	0.25	-0.125000	0.138184	0.995605	-2.310000	7.770000	-3.500000	416.00	-0.219588	-0.092544		
1.20	5.75	6.50	6.25	9.00	1.00	2.00	0.00	0.25	0.00	0.50	0.00	0.00	0.25	0.00	0.00	0.00	-0.167480	0.124512	0.973633	1.890000	3.010000	4.550000	303.00	-0.298299	-0.080963	4.25	4.50	6.25	8.25	3.50	4.50	0.25	1.25	0.75	0.75	0.50	0.50	0.50	0.25	0.25	0.25	-0.122070	0.133789	1.013184	-3.710000	12.110000	-5.950000	361.00	-0.207541	-0.088697		
1.21	6.00	6.75	7.00	8.75	1.25	3.00	0.00	0.50	0.00	0.50	0.00	0.00	0.50	0.00	0.00	0.00	-0.168945	0.122559	0.975586	2.520000	1.330000	5.670000	331.00	-0.287598	-0.085367	3.75	3.75	4.75	7.00	2.75	4.25	0.25	1.00	1.00	0.75	0.75	0.75	0.50	0.25	0.25	0.25	-0.153320	0.134277	1.047852	-6.440000	17.360001	-8.330000	316.00	-0.188145	-0.090468		
1.22	6.25	7.75	7.75	9.50	1.75	4.00	0.00	0.50	0.00	0.50	0.00	0.25	0.50	0.00	0.00	0.00	-0.169434	0.126465	0.974609	3.150000	-0.000000	6.720000	374.00	-0.281800	-0.089559	3.25	3.50	4.25	5.75	1.75	2.75	0.00	0.75	1.50	1.00	0.75	0.75	0.25	0.25	0.50	0.50	-0.170898	0.156250	1.066895	-10.570000	23.870001	-10.360000	270.00	-0.167704	-0.075271		
1.23	6.50	8.75	8.00	11.00	1.75	4.00	0.00	0.50	0.25	0.50	0.00	0.25	0.50	0.00	0.00	0.00	-0.173340	0.128906	0.967285	3.290000	-0.350000	7.490000	406.00	-0.281449	-0.091201	2.25	2.50	2.75	4.25	1.25	2.25	0.00	0.50	1.75	1.25	0.75	0.75	0.25	0.50	0.50	0.50	-0.097656	0.248047	1.090332	-17.570000	37.450001	-16.030001	215.00	-0.120501	-0.065888		
1.24	7.00	9.00	8.75	11.25	2.00	4.25	0.00	0.75	0.25	0.50	0.00	0.25	0.75	0.25	0.00	0.00	-0.151855	0.120605	0.965820	3.920000	-0.980000	8.050000	435.00	-0.274213	-0.090033	1.25	1.75	2.00	3.00	0.50	1.50	0.00	0.25	2.00	1.50	0.75	0.75	0.50	0.50	0.50	0.75	-0.150391	0.190918	1.444824	-23.730000	72.519997	-24.990000	170.00	-0.056753	-0.055676		
1.25	7.25	9.75	9.25	12.50	2.25	4.75	0.00	1.25	0.25	0.75	0.00	0.00	0.50	0.00	0.00	0.00	-0.134766	0.124512	0.969238	4.340000	-1.610000	8.050000	472.00	-0.275685	-0.094977	0.50	1.50	1.25	1.50	0.25	0.75	0.00	0.25	2.25	1.50	0.75	0.50	0.50	0.50	0.50	0.50	-0.232422	0.249512	1.523926	-21.420000	127.889999	-31.780001	127.00	0.013689	-0.026428		
1.26	7.50	11.00	9.75	12.75	2.75	5.25	0.00	1.75	0.00	0.75	0.25	0.25	0.50	0.00	0.00	0.00	-0.134277	0.124023	0.978027	4.480000	-2.170000	7.210000	511.00	-0.271350	-0.101736	0.25	1.00	1.25	1.00	0.25	0.25	0.00	0.25	2.50	1.50	0.75	0.50	0.25	0.50	0.50	0.50	-0.260254	0.208984	1.389648	-30.240000	174.089996	-39.619999	112.00	0.063457	0.011753		
1.27	7.50	11.25	10.25	13.25	2.75	5.75	0.25	2.25	0.50	0.75	0.25	0.50	0.50	0.25	0.00	0.00	-0.140625	0.140625	0.982910	3.570000	-2.030000	5.810000	549.00	-0.255114	-0.100129	0.25	0.75	0.75	0.75	0.00	0.00	0.00	0.00	2.75	1.50	0.75	0.25	0.00	0.50	0.50	0.50	-0.245117	0.179688	1.562012	-36.750000	200.690002	-44.730000	92.00	0.116360	0.066502		
1.28	8.00	11.00	10.25	13.50	3.25	6.00	0.25	2.50	0.50	0.75	0.50	0.50	1.00	0.50	0.00	0.25	-0.138184	0.128418	0.983398	3.290000	-1.400000	4.480000	575.00	-0.244284	-0.101906	0.00	0.75	0.50	0.75	0.00	0.25	0.00	0.00	2.75	1.50	0.75	0.25	0.00	0.50	0.50	0.25	-0.311035	0.368164	1.469727	-45.920002	249.130005	-56.349998	88.00	0.130336	0.060518		
1.29	8.00	11.00	10.00	13.25	3.75	6.50	0.25	2.75	0.50	1.00	0.50	0.50	1.25	0.75	0.00	0.00	-0.141113	0.131348	0.983398	3.430000	-0.630000	3.570000	588.00	-0.236585	-0.103149	0.00	0.25	0.25	0.75	0.00	0.25	0.00	0.00	2.50	1.25	0.75	0.25	0.00	0.50	0.25	0.25	-0.311035	0.368164	1.469727	-45.920002	249.130005	-56.349998	74.00	0.157541	0.068349		
1.30	7.50	11.00	10.00	13.50	3.75	6.50	0.25	3.00	0.75	1.00	0.50	0.50	0.75	0.75	0.00	0.00	-0.145020	0.136230	0.988281	2.730000	0.770000	2.730000	589.00	-0.234380	-0.102729	0.00	0.25	0.00	0.00	0.00	0.00	0.00	0.00	2.25	1.00	0.50	0.25	0.00	0.25	0.00	0.25	-0.361328	0.479492	1.523926	-43.959999	261.309998	-69.440002	49.00	0.000000	0.000000		
1.31	7.50	10.00	10.00	13.50	3.75	6.50	0.25	3.75	0.50	1.00	0.50	0.50	1.00	1.00	0.00	0.25	-0.145996	0.135254	0.983887	2.170000	1.680000	2.450000	593.00	-0.225621	-0.109546	0.00	0.25	0.00	0.00	0.00	0.00	0.00	0.00	1.75	0.75	0.50	0.25	0.00	0.25	0.00	0.00	-0.286133	0.541504	1.680664	-48.160000	257.809998	-84.840004	39.00	0.000000	0.000000		
1.32	7.50	10.00	9.75	13.25	4.25	7.00	0.25	3.75	0.50	1.25	0.50	0.75	1.25	1.25	0.00	0.25	-0.154297	0.136230	0.988281	1.400000	2.660000	2.100000	606.00	-0.216853	-0.110124	0.00	0.00	0.00	0.00	0.00	0.00	0.00	0.00	1.25	0.50	0.50	0.25	0.00	0.00	0.00	0.00	-0.294922	0.586426	1.512207	-76.860001	221.339996	-105.559998	27.00	0.000000	0.000000		
1.33	7.25	9.75	9.75	13.00	4.25	6.75	0.25	3.75	0.75	1.25	0.75	1.00	1.50	1.25	0.00	0.25	-0.154297	0.136230	0.988281	1.400000	2.660000	2.100000	607.00	-0.208362	-0.109661	0.00	0.00	0.00	0.00	0.00	0.00	0.00	0.00	1.00	0.50	0.50	0.00	0.00	0.00	0.00	0.25	-0.294922	0.586426	1.512207	-76.860001	221.339996	-105.559998	23.00	0.000000	0.000000		
1.34	7.00	9.50	9.50	12.75	4.25	7.00	0.25	3.75	0.75	1.25	0.75	0.75	1.75	1.75	0.00	0.50	-0.145508	0.139160	0.977539	0.980000	3.080000	1.750000	604.00	-0.201305	-0.110338	0.00	0.25	0.00	0.00	0.00	0.00	0.00	0.00	0.50	0.50	0.25	0.00	0.00	0.00	0.00	0.00	0.374512	0.958984	1.483887	-87.919998	196.910004	-104.860001	15.00	0.000000	0.000000		
1.35	7.00	9.25	9.25	12.75	4.00	7.25	0.25	4.00	1.00	1.50	0.75	1.00	2.00	1.75	0.00	0.50	-0.142090	0.137207	0.984863	0.210000	3.920000	0.490000	613.00	-0.192571	-0.113254	0.00	0.25	0.00	0.00	0.00	0.00	0.00	0.00	0.50	0.25	0.25	0.00	0.00	0.00	0.00	0.00	1.003906	1.834961	1.382812	-82.739998	153.020004	-63.630001	13.00	0.000000	0.000000		
1.36	6.75	9.00	9.25	12.50	4.25	7.25	0.25	4.00	1.00	1.50	1.00	1.50	2.75	1.75	0.00	0.25	-0.140137	0.135254	0.990234	0.210000	4.550000	-0.210000	621.00	-0.183237	-0.117147	0.00	0.00	0.00	0.00	0.00	0.00	0.00	0.00	0.50	0.25	0.25	0.00	0.00	0.00	0.00	0.00	0.746094	1.085938	0.742188	41.930000	68.250000	50.049999	11.00	0.000000	0.000000		
1.37	6.50	8.75	9.00	12.25	4.25	6.75	0.25	4.00	1.00	1.50	1.00	1.50	2.75	1.75	0.00	0.25	-0.150879	0.141602	0.988281	0.210000	5.460000	-0.490000	606.00	-0.181044	-0.117004	0.00	0.00	0.00	0.00	0.00	0.00	0.00	0.00	0.50	0.25	0.00	0.00	0.00	0.00	0.00	0.00	0.746094	1.085938	0.742188	41.930000	68.250000	50.049999	8.00	0.000000	0.000000		
1.38	6.25	8.75	8.75	11.75	4.25	7.00	0.25	4.25	1.00	1.50	1.25	1.50	2.50	2.50	0.00	0.25	-0.148438	0.135254	0.997070	0.140000	6.370000	-0.630000	608.00	-0.171696	-0.116096	0.00	0.25	0.00	0.00	0.00	0.00	0.00	0.00	0.25	0.25	0.00	0.00	0.00	0.00	0.00	0.00	0.693848	0.814941	0.775879	65.029999	62.160000	73.360001	7.00	0.000000	0.000000		
1.39	6.25	9.00	8.50	11.50	4.25	7.00	0.25	4.25	1.00	1.50	1.25	1.50	2.75	2.50	0.00	0.50	-0.146973	0.136230	0.996094	0.560000	7.140000	-0.840000	609.00	-0.169462	-0.118219	0.00	0.00	0.00	0.00	0.00	0.00	0.00	0.00	0.25	0.25	0.00	0.00	0.00	0.00	0.00	0.00	0.948730	0.495605	1.090820	78.889999	33.389999	100.449997	5.00	0.000000	0.000000		
1.40	6.25	8.50	8.00	11.25	4.25	6.50	0.25	4.25	1.25	1.75	1.25	1.75	3.00	2.50	0.25	0.50	-0.145996	0.135742	0.984863	1.050000	8.050000	-0.770000	604.00	-0.157920	-0.116958	0.00	0.00	0.00	0.00	0.00	0.00	0.00	0.00	0.25	0.25	0.00	0.00	0.00	0.00	0.00	0.00	0.892578	0.311523	1.094727	84.559998	4.690000	105.559998	5.00	0.000000	0.000000		
1.41	6.00	8.25	7.25	10.75	4.00	6.50	0.25	4.25	1.25	2.00	1.50	1.75	3.00	3.00	0.25	0.75	-0.151367	0.138184	0.990723	1.890000	8.820000	-0.840000	594.00	-0.145706	-0.117933	0.00	0.25	0.00	0.00	0.00	0.00	0.00	0.00	0.25	0.25	0.00	0.00	0.00	0.00	0.00	0.00	0.851074	0.077637	1.077148	87.150002	-20.860001	100.660004	7.00	0.000000	0.000000		
1.42	5.50	7.75	7.00	10.25	4.00	6.50	0.25	4.25	1.75	2.00	1.75	1.75	3.75	3.25	0.25	0.75	-0.154785	0.134766	0.976562	2.660000	9.660000	-0.980000	594.00	-0.129464	-0.117915	0.00	0.00	0.00	0.00	0.00	0.00	0.00	0.00	0.25	0.25	0.00	0.00	0.00	0.00	0.00	0.00	0.817383	-0.091309	1.110352	82.809998	-44.590000	87.080002	5.00	0.000000	0.000000		
1.43	5.00	7.25	6.25	9.50	4.00	6.25	0.25	4.25	2.00	2.00	2.50	2.25	3.75	3.25	0.50	1.00	-0.148926	0.138672	0.981445	3.640000	10.220000	-1.050000	586.00	-0.108925	-0.119779	0.00	0.00	0.00	0.00	0.00	0.00	0.00	0.00	0.00	0.00	0.00	0.00	0.00	0.00	0.00	0.00	0.796387	-0.172363	1.181641	74.760002	-70.209999	69.790001	0.00	0.000000	0.000000		
1.44	5.00	6.75	5.50	9.00	3.75	6.00	0.25	4.25	2.00	2.75	2.50	2.75	3.75	3.25	0.50	1.25	-0.149414	0.150391	0.979004	4.620000	10.710000	-1.120000	578.00	-0.094813	-0.121045	0.00	0.00	0.00	0.00	0.00	0.00	0.00	0.00	0.25	0.00	0.00	0.00	0.00	0.00	0.00	0.00	0.757812	-0.205566	1.218750	67.970001	-97.230003	52.920002	3.00	0.000000	0.000000		
1.45	4.50	6.00	5.25	8.75	3.25	5.75	0.25	4.25	2.00	2.75	2.75	3.00	4.25	3.50	0.25	1.00	-0.162109	0.145996	0.981445	4.900000	11.130000	-1.400000	561.00	-0.083279	-0.125778	0.00	0.00	0.00	0.00	0.00	0.00	0.00	0.00	0.25	0.25	0.00	0.00	0.00	0.00	0.00	0.00	0.706055	-0.221191	1.240723	63.980000	-123.059998	37.939999	5.00	0.000000	0.000000		
1.46	4.50	5.75	5.00	8.75	2.75	5.50	0.25	4.50	2.25	3.00	3.25	3.00	4.50	3.75	0.50	1.75	-0.159668	0.145996	0.979004	5.110000	11.760000	-1.960000	573.00	-0.066895	-0.127423	0.00	0.00	0.00	0.00	0.00	0.00	0.00	0.00	0.25	0.25	0.00	0.00	0.00	0.00	0.00	0.00	0.633789	-0.232910	1.258789	60.830002	-146.580002	26.110001	5.00	0.000000	0.000000		
1.47	4.25	5.25	4.50	8.25	2.75	5.25	0.25	4.50	2.00	3.25	3.25	3.25	4.50	3.75	0.50	2.25	-0.164062	0.142578	0.979980	5.320000	12.320000	-2.240000	558.00	-0.055965	-0.131491	0.00	0.00	0.00	0.00	0.00	0.00	0.00	0.00	0.25	0.00	0.00	0.00	0.00	0.00	0.00	0.00	0.554199	-0.231934	1.277344	56.910000	-167.300003	17.500000	3.00	0.000000	0.000000		
1.48	4.00	4.75	4.25	7.50	2.50	5.00	0.25	4.50	2.50	3.00	3.25	3.50	5.25	3.75	0.50	2.50	-0.166504	0.149414	0.987793	5.740000	12.250000	-2.170000	549.00	-0.040125	-0.133401	0.00	0.00	0.00	0.00	0.00	0.00	0.00	0.00	0.25	0.00	0.00	0.00	0.00	0.00	0.00	0.00	0.461426	-0.213379	1.287598	52.500000	-185.080002	12.320000	3.00	0.000000	0.000000		
1.49	4.00	4.50	4.00	7.25	2.25	4.75	0.25	4.50	2.75	3.00	3.75	3.50	5.50	3.75	0.50	2.50	-0.168945	0.146484	0.980957	6.020000	12.320000	-2.170000	547.00	-0.030873	-0.132967	0.00	0.00	0.00	0.00	0.00	0.00	0.00	0.00	0.00	0.00	0.00	0.00	0.00	0.00	0.00	0.00	0.350098	-0.185547	1.283203	48.160000	-199.710007	10.500000	0.00	0.000000	0.000000		
1.50	3.75	4.25	4.00	6.50	2.00	4.75	0.25	4.75	2.75	3.25	3.75	4.00	5.50	3.75	0.50	3.00	-0.163086	0.151367	0.979980	6.090000	12.390000	-2.380000	546.00	-0.018592	-0.136567	0.00	0.00	0.00	0.00	0.00	0.00	0.00	0.00	0.00	0.00	0.00	0.00	0.00	0.00	0.00	0.00	0.234375	-0.142090	1.286621	43.259998	-210.839996	11.480000	0.00	0.000000	0.000000		
1.51	3.50	4.00	3.50	6.00	1.75	4.50	0.25	5.00	2.50	3.50	3.75	4.50	5.75	3.75	0.50	3.50	-0.169922	0.145508	0.965332	7.000000	11.970000	-2.170000	538.00	-0.005238	-0.145638	0.00	0.00	0.00	0.00	0.00	0.00	0.00	0.00	0.00	0.00	0.00	0.00	0.00	0.00	0.00	0.00	0.114746	-0.083984	1.297852	38.150002	-218.960007	14.980000	0.00	0.000000	0.000000		
1.52	3.50	3.75	3.25	5.00	1.50	4.50	0.25	4.75	2.50	3.50	4.00	4.50	6.00	4.25	0.75	3.75	-0.170410	0.163574	0.974609	5.950000	12.040000	-2.660000	530.00	0.011145	-0.143331	0.00	0.00	0.00	0.00	0.00	0.00	0.00	0.00	0.00	0.00	0.00	0.00	0.00	0.00	0.00	0.00	-0.011230	-0.006348	1.289551	32.900002	-224.139999	20.580000	0.00	0.000000	0.000000		
1.53	3.50	3.50	3.25	4.50	1.25	4.25	0.25	4.75	2.75	3.50	4.50	4.75	6.50	4.75	1.00	4.00	-0.187500	0.156250	0.977051	5.320000	12.320000	-3.010000	539.00	0.027796	-0.141108	0.00	0.00	0.00	0.00	0.00	0.00	0.00	0.00	0.00	0.00	0.00	0.00	0.00	0.00	0.00	0.00	-0.137207	0.054199	1.267090	28.910000	-226.800003	28.000000	0.00	0.000000	0.000000		
1.54	3.50	3.50	2.50	4.50	1.25	4.25	0.25	4.75	2.75	3.50	4.75	5.25	6.50	4.75	1.00	4.25	-0.177246	0.162109	0.977539	5.320000	12.320000	-3.010000	540.00	0.035212	-0.146040	0.00	0.25	0.00	0.00	0.00	0.00	0.00	0.00	0.00	0.00	0.00	0.00	0.00	0.00	0.00	0.00	-0.299316	0.117188	1.227539	25.480000	-227.149994	36.189999	2.00	0.000000	0.000000		
1.55	3.50	3.50	2.25	3.75	1.00	4.25	0.00	4.75	3.00	3.50	5.25	5.25	7.00	4.75	1.00	4.25	-0.171387	0.156738	0.983887	5.880000	13.370000	-3.220000	536.00	0.045578	-0.149286	0.00	0.25	0.00	0.00	0.00	0.00	0.00	0.00	0.00	0.00	0.00	0.00	0.00	0.00	0.00	0.00	-0.506836	0.165039	1.186035	21.910000	-225.399994	43.470001	2.00	0.000000	0.000000		
1.56	3.25	2.50	1.75	3.50	1.00	4.00	0.25	4.75	3.25	3.75	5.25	5.75	7.75	4.75	1.25	4.25	-0.184570	0.168457	0.983887	5.880000	14.420000	-3.640000	537.00	0.066967	-0.150145	0.00	0.00	0.00	0.00	0.00	0.00	0.00	0.00	0.00	0.00	0.00	0.00	0.00	0.00	0.00	0.00	-0.808594	0.196289	1.099121	19.320000	-222.250000	48.369999	0.00	0.000000	0.000000		
1.57	2.25	1.75	1.25	3.25	1.00	4.00	0.25	4.50	3.25	4.00	5.50	6.25	8.00	5.00	1.25	4.50	-0.169922	0.161133	0.977051	5.880000	15.960000	-4.060000	525.00	0.091897	-0.155556	0.00	0.00	0.00	0.00	0.00	0.00	0.00	0.00	0.00	0.00	0.00	0.00	0.00	0.00	0.00	0.00	-1.179199	0.180176	0.969238	18.760000	-216.160004	49.420002	0.00	0.000000	0.000000		
1.58	1.25	2.00	1.00	3.00	0.50	3.00	0.00	4.50	3.75	4.00	6.00	6.75	8.00	5.25	1.50	4.75	-0.181152	0.169922	0.974121	5.950000	18.059999	-4.690000	515.00	0.117028	-0.158595	0.00	0.00	0.00	0.00	0.00	0.00	0.00	0.00	0.00	0.00	0.00	0.00	0.00	0.00	0.00	0.00	-1.620605	0.150391	0.844727	20.299999	-205.240005	46.340000	0.00	0.000000	0.000000		
1.59	1.00	1.75	0.50	2.25	0.50	2.25	0.00	4.50	3.75	4.25	6.50	7.25	8.25	5.50	2.25	5.75	-0.175781	0.174316	0.990723	6.230000	20.160000	-6.090000	519.00	0.145191	-0.159799	0.00	0.00	0.00	0.00	0.00	0.00	0.00	0.00	0.00	0.00	0.00	0.00	0.00	0.00	0.00	0.00	-2.045410	0.120605	0.708496	20.440001	-187.180008	42.139999	0.00	0.000000	0.000000		
1.60	1.00	1.25	0.75	1.25	0.25	2.00	0.00	4.25	3.75	4.25	7.00	7.50	8.75	5.75	2.50	6.75	-0.160156	0.173828	1.009277	7.420000	23.590000	-8.470000	519.00	0.165383	-0.158629	0.00	0.00	0.00	0.00	0.00	0.00	0.00	0.00	0.00	0.00	0.00	0.00	0.00	0.00	0.00	0.00	-2.757812	-0.093262	0.364258	21.420000	-129.710007	36.820000	0.00	0.000000	0.000000		
1.61	0.25	1.00	0.50	1.25	0.25	1.50	0.00	4.25	4.00	4.50	7.50	8.25	8.75	6.00	2.50	7.25	-0.181152	0.170410	1.036621	8.610000	31.430000	-11.270000	524.00	0.184363	-0.159843	0.00	0.00	0.00	0.00	0.00	0.00	0.00	0.00	0.00	0.00	0.00	0.00	0.00	0.00	0.00	0.00	-2.757812	-0.093262	0.364258	21.420000	-129.710007	36.820000	0.00	0.000000	0.000000		
1.62	0.00	0.75	0.00	0.75	0.00	1.00	0.00	4.00	4.25	5.00	7.50	8.50	8.50	7.25	3.25	8.25	-0.185059	0.171387	1.077148	11.830000	43.750000	-13.860000	529.00	0.214125	-0.150442	0.00	0.00	0.00	0.00	0.00	0.00	0.00	0.00	0.00	0.00	0.00	0.00	0.00	0.00	0.00	0.00	-2.980469	-0.296875	0.205078	28.070000	-93.029999	30.520000	0.00	0.000000	0.000000		
1.63	0.00	0.75	0.00	0.50	0.00	1.00	0.00	3.75	4.50	5.25	7.75	8.25	8.25	7.75	3.25	8.50	-0.213867	0.170410	1.054688	13.370000	55.720001	-14.700000	532.00	0.220382	-0.141153	0.00	0.00	0.00	0.00	0.00	0.00	0.00	0.00	0.00	0.00	0.00	0.00	0.00	0.00	0.00	0.00	-3.074707	-0.525879	0.073242	31.360001	-53.270000	16.940001	0.00	0.000000	0.000000		
1.64	0.00	0.25	0.00	0.00	0.00	0.75	0.00	3.25	4.50	5.50	7.75	8.50	8.00	8.50	3.50	8.75	-0.216309	0.173828	1.056152	11.270000	69.300003	-15.190001	525.00	0.238743	-0.131357	0.00	0.00	0.00	0.00	0.00	0.00	0.00	0.00	0.00	0.00	0.00	0.00	0.00	0.00	0.00	0.00	-4.403809	-1.764160	0.160645	-118.650002	107.239998	-50.540001	0.00	0.000000	0.000000		
1.65	0.50	0.00	0.00	0.00	0.00	0.50	0.00	2.50	4.75	6.00	7.75	8.50	8.00	8.75	3.75	9.00	-0.224121	0.180664	1.099609	7.000000	87.010002	-16.799999	528.00	0.244215	-0.118266	0.00	0.00	0.00	0.00	0.00	0.00	0.00	0.00	0.00	0.00	0.00	0.00	0.00	0.00	0.00	0.00	-4.403809	-1.764160	0.160645	-118.650002	107.239998	-50.540001	0.00	0.000000	0.000000		
1.66	0.00	0.50	0.00	0.00	0.00	0.50	0.00	1.75	5.00	6.50	7.75	8.50	7.25	9.50	4.00	9.25	-0.252930	0.208008	1.135742	-0.420000	109.199997	-19.460001	529.00	0.253575	-0.104554	0.00	0.25	0.00	4.25	0.00	0.00	0.00	0.00	0.00	0.00	0.00	0.00	0.00	0.00	0.00	0.00	-0.144043	-1.455078	3.202148	-221.130005	277.549988	-120.889999	45.00	0.000000	0.000000	21.00	
1.67	0.00	0.25	0.00	0.00	0.00	0.00	0.00	1.25	5.00	6.75	7.75	8.25	6.50	10.25	4.25	9.00	-0.267578	0.208496	1.125488	-6.930000	131.809998	-22.049999	516.00	0.267219	-0.089175	1.75	5.75	5.50	9.75	0.00	0.75	0.00	0.25	0.00	0.00	0.00	0.00	0.00	0.00	0.00	0.00	-1.749512	0.449707	5.992676	-220.220001	221.339996	-43.400002	230.00	-0.309145	-0.115806		
1.68	0.00	0.00	0.00	0.00	0.00	0.00	0.00	1.00	4.75	7.50	7.50	8.00	6.00	10.75	4.25	8.75	-0.315918	0.216309	1.261719	-12.110000	182.419998	-30.309999	508.00	0.273795	-0.080144	7.25	9.00	10.00	16.25	0.50	5.75	0.00	1.75	0.00	0.00	0.00	0.00	0.25	0.00	0.00	0.00	-0.596680	-0.203125	3.003906	-65.940002	51.520000	-9.380000	498.00	-0.286175	-0.117297		
1.69	0.00	0.00	0.00	0.00	0.00	0.00	0.00	0.50	4.75	7.25	7.25	7.25	5.75	11.00	4.25	9.00	-0.315918	0.216309	1.261719	-12.110000	182.419998	-30.309999	490.00	0.280431	-0.071082	7.50	9.25	11.25	16.75	1.25	7.00	0.00	2.00	0.00	0.00	0.00	0.00	0.25	0.00	0.00	0.00	-0.102539	0.032227	0.968750	-20.650000	6.580000	-6.860000	544.00	-0.279674	-0.115485		
1.70	0.00	0.00	0.00	0.00	0.00	0.00	0.00	0.50	4.75	7.50	6.75	6.75	5.25	11.00	4.25	8.25	-0.398926	0.224609	1.548340	-30.520000	257.040009	-39.200001	475.00	0.281836	-0.062486	7.50	9.00	11.50	16.00	2.00	7.00	0.00	2.00	0.00	0.25	0.00	0.25	0.50	0.00	0.00	0.00	-0.220215	0.157715	1.165527	-14.070000	8.540000	2.660000	551.00	-0.270855	-0.111698		
1.71	0.00	0.00	0.00	0.00	0.00	0.00	0.00	0.25	4.50	8.00	6.50	5.75	4.50	11.00	4.00	7.25	-0.398926	0.224609	1.548340	-30.520000	257.040009	-39.200001	448.00	0.285723	-0.047296	7.50	8.25	11.00	15.00	2.50	7.00	0.00	2.00	0.00	0.00	0.25	0.25	0.50	0.00	0.00	0.00	-0.121582	0.024902	0.962402	-4.200000	-1.260000	5.460000	535.00	-0.267553	-0.110024		
1.72	0.00	0.00	0.00	0.00	0.00	0.00	0.00	0.00	4.50	8.00	6.00	5.50	4.00	11.00	4.00	6.25	-0.483398	0.386230	1.390625	-59.220001	327.670013	-60.130001	428.00	0.289476	-0.035371	7.25	7.75	10.50	14.25	3.25	7.00	0.00	2.00	0.25	0.25	0.25	0.25	0.50	0.00	0.25	0.25	-0.197754	0.092773	0.977539	4.200000	-9.520000	1.960000	532.00	-0.253735	-0.105827		
1.73	0.00	0.00	0.00	0.00	0.00	0.00	0.00	0.00	4.25	7.50	5.50	5.00	3.75	10.25	3.50	5.25	-0.567871	0.388184	1.476074	-67.970001	356.369995	-75.320000	393.00	0.288536	-0.031656	7.00	6.75	10.25	14.00	3.50	7.00	0.00	2.50	0.25	0.25	0.25	0.50	0.50	0.00	0.00	0.25	-0.203613	0.162109	0.964355	10.080000	-14.770000	2.800000	526.00	-0.247337	-0.110170		
1.74	0.00	0.00	0.00	0.00	0.00	0.00	0.00	0.00	4.00	7.00	5.25	4.50	2.75	9.50	3.25	4.50	-0.677246	0.467773	1.816406	-71.190002	380.940002	-90.510002	358.00	0.290026	-0.021923	7.00	6.50	10.25	14.00	3.50	8.00	0.00	2.75	0.25	0.25	0.25	0.50	0.50	0.00	0.25	0.25	-0.204590	0.103516	0.963379	14.490000	-17.080000	4.900000	539.00	-0.240476	-0.114644		
1.75	0.00	0.00	0.00	0.00	0.00	0.00	0.00	0.00	3.75	6.50	4.75	4.00	2.00	8.50	2.75	4.00	-0.801758	0.383789	2.126953	-72.169998	399.350006	-105.070000	320.00	0.290216	-0.013895	6.25	6.25	10.50	14.25	4.25	9.00	0.00	3.50	0.50	0.25	0.50	0.75	0.75	0.25	0.25	0.50	-0.161133	0.108398	0.954590	20.860001	-20.510000	5.880000	576.00	-0.219642	-0.121620		
1.76	0.00	0.00	0.00	0.00	0.00	0.00	0.00	0.00	3.25	5.75	4.00	3.50	1.50	7.75	2.25	3.50	-0.988770	0.573242	2.444336	-66.360001	409.500000	-109.620003	277.00	0.291807	-0.008293	7.00	6.25	10.50	14.25	5.25	10.00	0.25	4.25	0.50	0.50	0.75	0.75	1.50	0.00	0.25	1.00	-0.167480	0.144043	0.974121	26.809999	-23.520000	6.090000	628.00	-0.206553	-0.125157		
1.77	0.00	0.00	0.00	0.00	0.00	0.00	0.00	0.00	2.75	5.25	3.75	3.00	1.00	5.75	1.50	2.50	-0.913574	0.635742	2.320801	-33.459999	417.690002	-114.800003	228.00	0.284956	-0.005777	7.00	6.25	10.50	14.50	5.50	10.50	0.25	5.25	0.50	0.50	0.75	1.50	2.25	0.25	0.50	1.00	-0.167969	0.144531	1.025391	27.510000	-19.950001	6.020000	670.00	-0.190252	-0.135272		
1.78	0.00	0.00	0.00	0.00	0.00	0.00	0.00	0.00	2.00	4.50	3.50	2.75	0.75	4.75	1.00	2.00	-0.829590	0.370605	2.726074	-17.219999	408.940002	-126.000000	190.00	0.281550	-0.013344	7.00	6.25	10.50	14.50	5.50	10.75	0.25	6.25	0.50	0.75	0.75	1.50	2.75	0.00	0.50	1.25	-0.152832	0.142090	1.022949	24.430000	-13.300000	5.810000	692.00	-0.183693	-0.143323		
1.79	0.00	0.00	0.00	0.00	0.00	0.00	0.00	0.00	1.25	4.25	2.75	2.00	0.75	3.75	0.25	1.50	-0.728027	0.268555	2.608398	-38.220001	405.089996	-134.470001	146.00	0.275598	-0.014908	6.75	6.00	10.25	14.25	5.50	10.50	0.25	6.75	0.50	1.00	1.00	2.00	3.75	0.00	0.50	1.75	-0.166504	0.147949	1.011230	20.860001	-8.610000	6.020000	707.00	-0.168626	-0.151078		
1.80	0.00	0.00	0.00	0.00	0.00	0.00	0.00	0.00	1.00	3.50	2.25	1.75	0.50	2.25	0.25	1.25	-0.348633	0.480469	2.474609	-64.400002	405.440002	-136.850006	114.00	0.268643	-0.025955	6.25	5.75	10.00	14.00	5.50	10.25	0.25	7.00	0.50	1.00	1.50	2.25	4.00	0.25	0.50	1.75	-0.167480	0.166992	1.007812	17.360001	-6.090000	6.230000	707.00	-0.158318	-0.154356		
1.81	0.00	0.00	0.00	0.00	0.00	0.00	0.00	0.00	0.75	2.75	1.50	1.00	0.00	0.25	0.50	0.75	0.139648	0.627930	2.007324	-90.300003	391.160004	-142.449997	70.00	0.257735	-0.023102	5.50	6.00	9.75	14.00	5.75	10.75	0.25	7.50	0.75	1.00	1.50	2.50	4.50	0.25	0.75	2.00	-0.151855	0.162598	0.986816	14.560000	-5.110000	5.810000	727.00	-0.147254	-0.160575		
1.82	0.00	0.00	0.00	0.00	0.00	0.00	0.00	0.00	0.25	1.50	0.75	0.25	0.00	0.00	0.00	0.25	0.701660	0.535156	1.402344	-111.090004	368.059998	-147.979996	28.00	0.000000	0.000000	6.00	5.75	9.50	13.75	5.75	10.75	0.25	7.50	1.00	1.00	1.75	2.50	4.75	0.25	0.50	2.25	-0.145020	0.167480	1.010742	12.180000	-4.410000	4.620000	731.00	-0.144468	-0.158880		
1.83	0.00	0.00	0.00	0.00	0.00	0.00	0.00	0.00	0.00	1.00	0.50	0.00	0.00	0.00	0.00	0.25	1.757324	0.676758	1.733398	-101.080002	324.380005	-151.270004	16.00	0.000000	0.000000	5.50	5.75	9.25	13.00	5.75	10.75	0.25	7.50	1.00	1.25	2.00	2.75	4.75	0.25	0.75	2.50	-0.152832	0.166016	1.019043	10.220000	-2.940000	3.710000	727.00	-0.134526	-0.160404		
1.84	0.00	0.00	0.00	0.00	0.00	0.00	0.00	0.00	0.00	0.75	0.25	0.00	0.00	0.00	0.25	0.25	0.419922	1.184082	3.110352	-30.799999	206.149994	-138.180008	13.00	0.000000	0.000000	5.50	5.50	9.25	12.50	5.50	10.50	0.25	7.75	1.00	1.75	2.50	3.00	5.25	0.50	0.75	2.75	-0.144043	0.161621	1.009277	8.540000	-1.120000	3.430000	738.00	-0.122264	-0.161115		
1.85	0.00	0.00	0.00	0.00	0.00	0.00	0.00	0.00	0.00	0.50	0.25	0.00	0.00	0.00	0.00	0.25	0.554199	1.166504	3.136230	33.180000	32.759998	-91.840004	8.00	0.000000	0.000000	5.25	5.50	9.00	12.50	5.50	10.25	0.25	7.50	1.25	1.75	2.50	3.25	5.25	0.25	0.75	2.75	-0.157715	0.167480	1.006836	7.140000	0.070000	3.500000	730.00	-0.120058	-0.160950		
1.86	0.00	0.00	0.00	0.00	0.00	0.00	0.00	0.00	0.00	0.50	0.00	0.00	0.00	0.00	0.00	0.00	0.917480	0.432617	1.766113	38.080002	-83.300003	-45.150002	5.00	0.000000	0.000000	4.75	4.75	8.50	12.25	5.50	10.00	0.25	7.50	1.25	1.75	2.50	3.25	5.50	0.50	1.25	2.75	-0.149414	0.168945	1.000488	5.740000	0.770000	3.150000	718.00	-0.108047	-0.163237		
1.87	0.00	0.00	0.00	0.00	0.00	0.00	0.00	0.00	0.00	0.50	0.00	0.00	0.00	0.00	0.00	0.00	0.790527	0.272461	1.025391	2.800000	-142.029999	-18.549999	5.00	0.000000	0.000000	4.50	4.50	8.00	10.75	5.25	9.75	0.25	7.50	1.25	1.75	2.50	3.25	5.50	0.50	1.25	2.75	-0.153809	0.172363	1.002441	4.060000	1.400000	2.660000	688.00	-0.100772	-0.165112		
1.88	0.00	0.00	0.00	0.00	0.00	0.00	0.00	0.00	0.00	0.50	0.00	0.00	0.00	0.00	0.00	0.00	0.379883	0.516113	0.928223	-54.320000	-180.389999	21.000000	5.00	0.000000	0.000000	4.25	4.25	7.75	10.50	5.00	9.50	0.25	7.25	1.00	2.00	2.50	3.50	5.50	0.50	1.25	3.00	-0.154785	0.171875	0.994141	1.260000	2.380000	1.610000	673.00	-0.095994	-0.167975		
1.89	0.00	0.00	0.00	0.00	0.00	0.00	0.00	0.00	0.00	0.25	0.00	0.00	0.00	0.25	0.00	0.00	0.461914	0.638184	0.913086	-48.509998	-200.130005	42.770000	4.00	0.000000	0.000000	4.00	4.25	6.75	9.75	4.50	9.25	0.25	7.00	1.00	2.00	2.75	3.50	5.50	0.50	1.25	3.00	-0.158691	0.171875	0.994141	1.260000	2.380000	1.610000	644.00	-0.088753	-0.172385		
1.90	0.00	0.00	0.00	0.00	0.00	0.00	0.00	0.00	0.00	0.00	0.00	0.00	0.00	0.25	0.00	0.00	0.407227	0.654785	0.887695	-29.049999	-228.130005	65.870003	2.00	0.000000	0.000000	3.75	4.25	6.25	9.25	4.25	9.00	0.25	7.00	1.00	2.00	2.75	3.50	5.50	0.50	1.25	3.25	-0.158691	0.172363	0.996582	-0.070000	3.150000	1.050000	628.00	-0.083255	-0.175967		
1.91	0.00	0.25	0.00	0.00	0.00	0.00	0.00	0.00	0.00	0.00	0.00	0.00	0.00	0.25	0.00	0.00	0.297363	0.590820	0.770508	-9.520000	-251.790009	86.800003	4.00	0.000000	0.000000	3.50	4.00	6.00	8.75	4.25	8.75	0.00	6.75	1.50	2.25	3.00	3.50	5.50	0.50	1.50	3.25	-0.160156	0.163086	0.991211	-1.050000	3.290000	0.910000	620.00	-0.071913	-0.172673		
1.92	0.00	0.00	0.00	0.00	0.00	0.00	0.00	0.00	0.00	0.00	0.00	0.00	0.00	0.00	0.00	0.00	0.191895	0.520020	0.597656	3.220000	-262.360016	102.760002	0.00	0.000000	0.000000	3.50	3.75	5.00	7.75	3.75	8.00	0.00	6.75	1.50	2.25	3.00	3.75	5.50	0.50	1.50	3.25	-0.158691	0.165039	0.993164	-1.260000	3.080000	1.260000	588.00	-0.061004	-0.177588		
1.93	0.00	0.00	0.00	0.00	0.00	0.00	0.00	0.00	0.00	0.25	0.00	0.00	0.00	0.00	0.00	0.00	0.108398	0.469238	0.486816	10.360000	-260.610016	114.379997	2.00	0.000000	0.000000	3.25	3.50	4.75	7.25	3.25	7.25	0.00	6.50	1.50	2.25	3.00	3.75	5.50	0.50	1.50	3.25	-0.162109	0.164062	0.983887	-1.260000	3.150000	1.470000	560.00	-0.053764	-0.179177		
1.94	0.00	0.00	0.00	0.00	0.00	0.00	0.00	0.00	0.00	0.00	0.00	0.00	0.00	0.00	0.00	0.00	0.046387	0.437988	0.495605	16.309999	-252.910004	122.570000	0.00	0.000000	0.000000	2.75	3.50	4.75	7.00	2.75	7.00	0.00	6.50	1.50	2.00	3.00	3.75	5.50	0.50	1.50	3.25	-0.166992	0.170410	0.979492	-1.750000	3.080000	1.540000	542.00	-0.049810	-0.184342		
1.95	0.00	0.00	0.00	0.00	0.00	0.00	0.00	0.00	0.00	0.00	0.00	0.00	0.00	0.00	0.00	0.00	0.021484	0.410156	0.579590	24.360001	-244.790009	127.680000	0.00	0.000000	0.000000	2.50	3.00	4.50	6.25	2.50	6.75	0.00	6.25	1.50	2.00	3.00	3.75	5.25	0.25	1.50	3.25	-0.163574	0.173340	0.982910	-2.310000	2.940000	1.470000	513.00	-0.042616	-0.186274		
1.96	0.00	0.00	0.00	0.00	0.00	0.00	0.00	0.00	0.00	0.00	0.00	0.00	0.00	0.00	0.00	0.00	-0.000488	0.401367	0.714355	35.700001	-240.800003	131.180008	0.00	0.000000	0.000000	2.50	2.00	4.25	6.25	2.50	6.25	0.00	5.75	1.25	2.25	3.00	3.75	5.25	0.50	1.50	3.25	-0.159668	0.174805	0.977539	-2.730000	2.590000	1.050000	492.00	-0.033018	-0.184416		
1.97	0.00	0.00	0.00	0.00	0.00	0.00	0.00	0.00	0.00	0.00	0.00	0.00	0.00	0.00	0.00	0.00	0.000977	0.376465	0.820312	48.369999	-241.570007	134.470001	0.00	0.000000	0.000000	2.00	1.75	3.50	5.75	2.25	5.75	0.00	5.75	1.25	2.25	3.25	3.75	5.25	0.50	1.50	3.25	-0.161621	0.170410	0.977539	-2.870000	2.240000	0.350000	467.00	-0.017901	-0.191549		
1.98	0.00	0.00	0.00	0.00	0.00	0.00	0.00	0.00	0.00	0.00	0.00	0.00	0.00	0.00	0.00	0.00	0.000488	0.327637	0.906738	58.730000	-245.350006	137.550003	0.00	0.000000	0.000000	2.00	2.00	2.75	5.50	1.75	5.25	0.00	5.25	1.50	2.00	3.25	3.75	5.25	0.50	1.75	3.25	-0.157715	0.172363	0.979980	-3.080000	1.890000	-0.280000	445.00	-0.008613	-0.192528		
1.99	0.00	0.00	0.00	0.00	0.00	0.00	0.00	0.00	0.00	0.00	0.00	0.00	0.00	0.00	0.00	0.00	-0.008301	0.273926	0.979004	65.379997	-249.479996	139.860001	0.00	0.000000	0.000000	1.50	1.75	2.50	5.00	1.25	4.75	0.00	5.25	1.50	2.25	3.25	3.75	5.25	0.50	1.75	3.75	-0.164551	0.169922	0.980469	-3.010000	1.540000	-0.770000	426.00	0.009229	-0.198649		
2.00	0.00	0.00	0.00	0.00	0.00	0.00	0.00	0.00	0.00	0.00	0.00	0.00	0.00	0.00	0.00	0.00	-0.056152	0.231445	1.045898	70.209999	-253.470001	140.419998	0.00	0.000000	0.000000	1.50	1.50	2.25	4.50	1.25	4.50	0.00	4.75	1.25	2.50	3.50	4.00	5.25	0.50	1.75	3.75	-0.163086	0.158691	0.979004	-2.730000	1.400000	-0.980000	411.00	0.020055	-0.198575		
2.01	0.00	0.00	0.00	0.00	0.00	0.00	0.00	0.00	0.00	0.00	0.00	0.00	0.00	0.00	0.00	0.00	-0.103027	0.173828	1.091797	74.059998	-256.760010	139.720001	0.00	0.000000	0.000000	1.50	1.00	2.00	3.50	1.25	4.25	0.00	4.75	1.25	2.50	3.75	4.25	5.25	0.50	2.25	3.75	-0.169434	0.156250	0.984375	-1.820000	1.610000	-0.980000	401.00	0.042241	-0.198315		
2.02	0.00	0.00	0.00	0.00	0.00	0.00	0.00	0.00	0.00	0.00	0.00	0.00	0.00	0.00	0.00	0.00	-0.136230	0.169922	1.196777	76.510002	-257.320007	137.619995	0.00	0.000000	0.000000	1.00	1.00	1.75	3.50	1.25	4.25	0.00	4.75	1.50	2.50	3.75	4.25	5.00	0.50	2.25	3.75	-0.168457	0.150391	0.991699	-0.700000	2.030000	-0.700000	395.00	0.050550	-0.198943		
2.03	0.00	0.00	0.00	0.00	0.00	0.00	0.00	0.00	0.00	0.00	0.00	0.00	0.00	0.00	0.00	0.00	-0.194336	0.165039	1.259277	78.050003	-257.880005	134.820007	0.00	0.000000	0.000000	0.75	0.25	1.25	3.50	0.75	4.25	0.00	4.75	1.50	2.50	4.00	4.25	5.25	0.50	2.25	3.75	-0.172852	0.167480	0.981445	0.490000	2.730000	-0.350000	380.00	0.069418	-0.209562		
2.04	0.00	0.00	0.00	0.00	0.00	0.00	0.00	0.00	0.00	0.00	0.00	0.00	0.00	0.00	0.00	0.00	-0.327637	0.137695	1.431152	77.629997	-258.019989	122.010002	0.00	0.000000	0.000000	0.50	0.00	1.25	3.00	0.50	3.75	0.00	4.25	1.50	2.75	4.25	4.50	5.50	0.50	2.25	3.75	-0.169434	0.157227	0.982910	1.400000	3.360000	-0.140000	366.00	0.089673	-0.208741		
2.05	0.00	0.00	0.00	0.00	0.00	0.00	0.00	0.00	0.00	0.00	0.00	0.00	0.00	0.00	0.00	0.00	-0.327637	0.137695	1.431152	77.629997	-258.019989	122.010002	0.00	0.000000	0.000000	0.00	0.25	0.75	2.00	0.50	3.00	0.00	4.25	1.75	3.25	4.25	4.75	5.50	0.50	2.50	4.50	-0.173828	0.166504	0.992676	2.240000	4.270000	0.070000	357.00	0.123169	-0.208309		
2.06	0.00	0.00	0.00	0.00	0.00	0.00	0.00	0.00	0.00	0.00	0.00	0.00	0.00	0.00	0.00	0.00	-0.616211	0.202637	1.673340	77.980003	-268.730011	105.769997	0.00	0.000000	0.000000	0.00	0.25	0.75	2.00	0.50	2.75	0.00	4.25	1.75	3.25	4.50	4.75	5.50	0.50	2.75	4.75	-0.169922	0.159668	0.987305	2.730000	5.180000	0.210000	360.00	0.128478	-0.206769		
2.07	0.00	0.00	0.00	0.00	0.00	0.00	0.00	0.00	0.00	0.00	0.00	0.00	0.00	0.00	0.00	0.00	-0.834961	0.240723	1.742188	72.029999	-280.070007	100.730003	0.00	0.000000	0.000000	0.00	0.25	0.50	1.50	0.50	2.25	0.00	4.25	2.00	3.25	4.75	5.00	5.50	0.50	2.75	5.00	-0.170410	0.160645	0.976562	3.500000	6.580000	-0.000000	357.00	0.144126	-0.204034		
2.08	0.00	0.00	0.00	0.00	0.00	0.00	0.00	0.00	0.00	0.00	0.00	0.00	0.00	0.00	0.00	0.00	-1.036621	0.263184	1.703613	59.500000	-290.079987	99.680000	0.00	0.000000	0.000000	0.00	0.25	0.00	1.25	0.00	1.75	0.00	4.25	2.25	3.25	5.00	5.00	6.00	0.50	3.00	5.50	-0.170898	0.175781	0.983398	4.970000	8.260000	-0.700000	354.00	0.166216	-0.209123		
2.09	0.00	0.00	0.00	0.00	0.00	0.00	0.00	0.00	0.00	0.00	0.00	0.00	0.00	0.00	0.00	0.00	-1.290527	0.269043	1.668457	41.580002	-296.239990	100.029999	0.00	0.000000	0.000000	0.00	0.00	0.00	1.00	0.00	1.25	0.00	4.25	2.25	3.75	5.25	5.25	6.50	0.75	3.50	5.75	-0.155273	0.193359	0.988281	6.300000	10.080000	-1.610000	366.00	0.183856	-0.204170		
2.10	0.00	0.00	0.00	0.00	0.00	0.00	0.00	0.00	0.00	0.00	0.00	0.00	0.00	0.00	0.00	0.00	-1.588379	0.299805	1.613281	22.680000	-296.799988	98.139999	0.00	0.000000	0.000000	0.25	0.00	0.00	0.75	0.00	1.00	0.00	4.00	2.75	4.25	5.50	5.75	6.50	1.00	3.50	6.75	-0.162598	0.195801	1.000488	7.770000	12.950000	-2.940000	384.00	0.193095	-0.189264		
2.11	0.00	0.00	0.00	0.00	0.00	0.00	0.00	0.00	0.00	0.00	0.00	0.00	0.00	0.00	0.00	0.00	-1.927246	0.347168	1.511230	9.590000	-291.619995	92.330002	0.00	0.000000	0.000000	0.00	0.25	0.00	0.25	0.00	1.00	0.00	4.00	2.75	4.25	5.75	6.00	6.50	1.00	4.00	8.25	-0.176758	0.181641	1.006348	8.890000	17.010000	-4.340000	396.00	0.205546	-0.191712		
2.12	0.00	0.00	0.00	0.00	0.00	0.00	0.00	0.00	0.00	0.00	0.00	0.00	0.00	0.00	0.00	0.00	-2.303711	0.358398	1.358398	5.810000	-280.070007	83.580002	0.00	0.000000	0.000000	0.00	0.25	0.00	0.25	0.00	1.00	0.00	4.00	3.25	4.75	6.25	6.25	6.50	1.50	4.25	9.00	-0.187012	0.168457	1.031738	10.710000	23.940001	-5.810000	424.00	0.211312	-0.179055		
2.13	0.00	0.00	0.00	0.00	0.00	0.00	0.00	0.00	0.00	0.00	0.00	0.00	0.00	0.00	0.00	0.00	-2.663086	0.303223	1.191895	9.590000	-260.470001	71.050003	0.00	0.000000	0.000000	0.00	0.25	0.00	0.25	0.00	0.50	0.00	3.75	3.50	4.75	7.00	6.75	6.75	1.75	5.00	10.00	-0.197266	0.167480	1.015625	11.200000	32.340000	-5.950000	447.00	0.223120	-0.173194		
2.14	0.00	0.00	0.00	0.00	0.00	0.00	0.00	0.00	0.00	0.00	0.00	0.00	0.00	0.00	0.00	0.00	-3.018555	0.231445	0.990723	15.050000	-232.820007	53.900002	0.00	0.000000	0.000000	0.00	0.25	0.00	0.00	0.00	0.25	0.00	3.50	4.25	5.50	7.00	7.00	6.75	2.25	5.25	10.75	-0.199219	0.168945	1.022949	12.110000	41.439999	-5.880000	467.00	0.234065	-0.156888		
2.15	0.00	0.00	0.00	0.00	0.00	0.00	0.00	0.00	0.00	0.00	0.00	0.00	0.00	0.00	0.00	0.00	-3.342773	0.160156	0.760742	19.600000	-198.869995	32.200001	0.00	0.000000	0.000000	0.00	0.00	0.00	0.00	0.00	0.25	0.00	3.25	4.75	5.75	7.50	7.50	6.75	2.50	5.75	11.50	-0.210449	0.167480	1.058105	12.460000	52.009998	-6.020000	490.00	0.241943	-0.148934		
2.16	0.00	0.00	0.00	0.00	0.00	0.00	0.00	0.00	0.00	0.00	0.00	0.00	0.00	0.00	0.00	0.00	-3.566895	0.071289	0.503418	25.200001	-160.020004	8.750000	0.00	0.000000	0.000000	0.00	0.00	0.00	0.00	0.00	0.25	0.00	3.00	5.50	6.50	7.25	7.75	6.50	3.50	6.00	12.25	-0.238281	0.216797	1.120117	11.830000	86.379997	-8.680000	515.00	0.248307	-0.132518		
2.17	0.00	0.00	0.00	0.00	0.00	0.00	0.00	0.00	0.00	0.00	0.00	0.00	0.00	0.00	0.00	0.00	-3.667480	0.006348	0.333496	33.670002	-118.300003	-14.140000	0.00	0.000000	0.000000	0.00	0.00	0.00	0.00	0.00	0.25	0.00	2.25	5.50	6.50	7.50	8.25	6.50	4.00	6.50	12.50	-0.249512	0.235352	1.164062	8.050000	110.599998	-12.740000	522.00	0.256005	-0.126410		
2.18	0.00	0.00	0.00	0.00	0.00	0.00	0.00	0.00	0.00	0.00	0.00	0.00	0.00	0.00	0.00	0.00	-3.665527	-0.047363	0.223145	40.529999	-76.300003	-34.720001	0.00	0.000000	0.000000	0.00	0.00	0.00	0.00	0.00	0.00	0.00	2.00	5.50	6.75	7.50	8.00	6.50	4.75	6.50	13.00	-0.249512	0.235352	1.164062	8.050000	110.599998	-12.740000	524.00	0.262128	-0.119803		
2.19	0.00	0.00	0.00	0.00	0.00	0.00	0.00	0.00	0.00	0.00	0.00	0.00	0.00	0.00	0.00	0.00	-3.630859	-0.116699	0.180664	40.320000	-36.330002	-52.639999	0.00	0.000000	0.000000	0.00	0.00	0.00	0.00	0.00	0.00	0.00	1.50	6.00	7.25	7.00	7.50	6.50	4.75	6.50	13.00	-0.272461	0.238281	1.173828	1.470000	137.550003	-17.920000	518.00	0.266393	-0.108313		
2.20	0.00	0.00	0.00	0.00	0.00	0.00	0.00	0.00	0.00	0.00	0.00	0.00	0.00	0.00	0.00	0.00	-3.436035	-0.790527	-1.207031	-179.270004	135.940002	-72.519997	0.00	0.000000	0.000000	0.00	0.00	0.00	0.00	0.00	0.00	0.00	1.00	6.00	7.25	7.25	7.50	6.25	5.25	6.50	12.50	-0.320312	0.250000	1.231445	-6.650000	194.949997	-30.450001	513.00	0.271021	-0.099956		
2.21	0.00	0.00	0.00	0.00	0.00	0.00	0.00	0.00	0.00	0.00	0.00	0.00	0.00	0.00	0.00	0.00	-3.436035	-0.790527	-1.207031	-179.270004	135.940002	-72.519997	0.00	0.000000	0.000000	0.00	0.00	0.00	0.00	0.00	0.00	0.00	0.50	6.25	7.50	7.00	7.00	5.75	5.50	6.50	12.25	-0.367676	0.263184	1.273926	-11.690000	231.490005	-36.610001	501.00	0.276695	-0.086434		
2.22	0.00	0.25	0.00	0.00	0.00	0.00	0.00	0.00	0.00	0.00	0.00	0.00	0.00	0.00	0.00	0.00	-0.825684	0.534668	1.204590	-266.980011	202.440002	-81.830002	2.00	0.000000	0.000000	0.00	0.00	0.00	0.00	0.00	0.00	0.00	0.25	6.25	7.50	6.75	6.75	5.50	5.75	6.50	11.50	-0.378418	0.279785	1.376465	-20.650000	270.970001	-44.520000	489.00	0.279692	-0.078759		11.00
2.23	1.25	2.25	0.50	2.00	0.00	0.00	0.00	0.00	0.00	0.00	0.00	0.00	0.00	0.00	0.00	0.00	0.304199	0.052734	1.932617	-46.130001	183.050003	33.529999	56.00	-0.353777	-0.105742	0.00	0.00	0.00	0.00	0.00	0.00	0.00	0.00	6.50	7.75	6.25	6.00	4.75	5.50	6.25	10.50	-0.424805	0.368164	1.469727	-33.950001	304.640015	-55.230000	463.00	0.282558	-0.063210		
2.24	4.75	5.50	3.75	5.50	0.00	0.00	0.00	0.25	0.00	0.00	0.00	0.00	0.00	0.00	0.00	0.00	-0.214844	-1.544434	1.435547	18.480000	170.940002	42.910000	188.00	-0.337427	-0.069864	0.00	0.00	0.00	0.00	0.00	0.00	0.00	0.00	6.50	7.50	6.00	5.75	4.50	5.50	5.75	9.50	-0.435547	0.319336	1.487793	-43.470001	336.839996	-67.410004	444.00	0.281782	-0.057534		
2.25	7.50	9.00	7.25	10.50	0.00	1.00	0.00	0.50	0.00	0.00	0.00	0.00	0.00	0.00	0.00	0.00	-1.363770	0.425781	3.252441	47.599998	241.360001	-10.360000	343.00	-0.325785	-0.079812	0.00	0.00	0.00	0.00	0.00	0.00	0.00	0.00	6.25	7.25	5.50	5.25	4.00	5.25	5.25	8.25	-0.517090	0.354980	1.714844	-50.680000	377.230011	-79.169998	412.00	0.281544	-0.050215		
2.26	8.50	9.50	10.75	13.50	0.50	4.00	0.00	1.25	0.00	0.00	0.00	0.00	0.50	0.00	0.00	0.00	-0.799805	-0.262207	2.192383	-30.450001	118.020004	-1.120000	472.00	-0.296916	-0.094081	0.00	0.00	0.00	0.00	0.00	0.00	0.00	0.00	6.00	7.25	5.25	5.00	3.25	5.00	4.75	6.00	-0.695801	0.507812	1.984375	-45.220001	430.360016	-90.930000	380.00	0.279752	-0.037310		
2.27	8.75	9.00	11.75	14.00	1.25	4.50	0.00	1.75	0.00	0.00	0.00	0.00	0.75	0.25	0.00	0.00	-0.561035	0.962891	1.078613	-26.320000	16.030001	-5.390000	509.00	-0.283297	-0.094065	0.00	0.00	0.00	0.00	0.00	0.00	0.00	0.00	5.25	6.50	5.00	4.75	2.50	4.25	3.75	4.50	-0.977539	0.706055	2.327148	-37.660000	474.110016	-106.470001	330.00	0.276240	-0.034060		
2.28	8.00	9.00	11.75	13.50	1.75	5.00	0.00	2.00	0.00	0.00	0.00	0.25	0.75	0.25	0.00	0.00	-0.064453	0.202637	0.787109	-28.770000	48.230000	2.380000	512.00	-0.274611	-0.098778	0.00	0.25	0.00	0.00	0.00	0.00	0.00	0.00	5.50	5.50	4.50	4.25	2.00	3.50	2.75	3.25	-1.139648	0.653809	2.777832	-40.459999	482.089996	-124.529999	291.00	0.266712	-0.020151		
2.29	7.50	8.75	11.75	13.50	2.50	5.75	0.00	2.75	0.00	0.00	0.00	0.50	0.75	0.25	0.00	0.00	-0.106934	-0.079590	1.265137	-23.870001	42.840000	5.180000	533.00	-0.261769	-0.107150	0.00	0.25	0.00	0.00	0.00	0.00	0.00	0.00	4.75	4.75	3.75	3.25	1.50	2.50	2.25	2.50	-1.387695	0.946777	2.706543	-27.090000	459.269989	-131.250000	237.00	0.264041	-0.012905		
2.30	7.25	8.50	12.75	13.75	3.75	6.50	0.00	3.50	0.00	0.25	0.25	0.75	0.75	0.00	0.00	0.50	-0.243652	0.055176	1.063965	-7.210000	6.440000	-0.560000	580.00	-0.245510	-0.110438	0.00	0.25	0.00	0.00	0.00	0.00	0.00	0.00	3.75	4.00	3.00	2.75	1.25	1.75	1.00	2.00	-0.848633	0.966797	2.698242	-6.370000	434.769989	-148.539993	184.00	0.253978	-0.015716		
2.31	7.25	8.25	13.50	14.25	4.50	7.50	0.00	3.75	0.25	0.50	0.50	0.50	1.00	0.00	0.25	0.50	-0.235840	0.237793	1.027832	-0.000000	-1.540000	0.560000	621.00	-0.233058	-0.108604	0.00	0.00	0.00	0.00	0.00	0.00	0.00	0.00	2.75	3.25	2.25	2.00	0.75	1.00	0.75	1.50	-1.014648	0.951660	2.795410	24.430000	426.860016	-175.210007	133.00	0.259912	-0.011413		
2.32	7.50	8.50	13.25	14.00	4.50	8.50	0.25	4.00	0.50	0.75	0.50	1.00	1.25	0.00	0.25	0.75	-0.160645	0.114258	0.972168	2.100000	-3.780000	3.360000	651.00	-0.220210	-0.110940	0.00	0.00	0.00	0.00	0.00	0.00	0.00	0.00	2.00	2.50	1.75	1.50	0.50	0.75	0.50	1.00	-0.419922	0.915039	2.754883	22.469999	421.190002	-198.589996	99.00	0.258540	-0.009140	25.00	
2.33	7.50	9.00	13.50	14.75	4.50	9.00	0.25	4.00	0.50	1.00	0.50	1.25	1.50	0.00	0.25	1.00	-0.190918	0.130859	1.038574	4.270000	-7.280000	2.310000	678.00	-0.216490	-0.114429	0.00	0.00	0.00	0.00	0.00	0.00	0.00	0.00	1.25	1.75	1.00	0.75	0.25	0.50	0.25	0.50	0.181641	1.038086	2.076660	-0.000000	396.200012	-224.210007	59.00	0.258875	0.011959		
2.34	8.00	8.75	14.00	15.25	5.00	9.00	0.25	4.25	0.50	1.00	0.50	1.50	1.75	0.00	0.50	1.00	-0.164551	0.169922	1.031738	3.990000	-5.810000	2.170000	706.00	-0.211675	-0.113695	0.00	0.00	0.00	0.00	0.00	0.00	0.00	0.00	0.50	1.00	0.75	0.25	0.00	0.25	0.00	0.25	0.750488	0.963379	1.381836	5.880000	363.160004	-239.050003	28.00	0.000000	0.000000		
2.35	8.50	9.00	14.00	15.00	4.50	9.25	0.25	4.25	0.75	1.00	0.75	1.50	1.75	0.00	0.25	1.00	-0.123047	0.125977	0.997070	4.270000	-3.290000	2.380000	711.00	-0.212351	-0.112250																											
2.36	8.00	8.75	13.50	14.75	4.50	9.00	0.25	4.25	0.75	1.00	1.00	1.75	1.75	0.00	0.25	1.00	-0.123535	0.154785	0.979980	6.230000	-1.470000	2.030000	699.00	-0.207042	-0.114727	0.00	0.00	0.00	0.00	0.00	0.00	0.00	0.00	0.00	0.50	0.25	0.00	0.00	0.00	0.00	0.25	1.376465	1.116211	1.316895	44.799999	308.630005	-237.720001	8.00	0.000000	0.000000		
2.37	8.00	8.75	13.00	14.50	5.00	9.25	0.25	4.50	0.75	1.00	1.00	1.75	2.00	0.00	0.25	1.00	-0.117188	0.166016	0.991211	6.790000	0.700000	1.750000	704.00	-0.203528	-0.117467	0.00	0.00	0.00	0.00	0.00	0.00	0.00	0.00	0.00	0.50	0.25	0.00	0.00	0.00	0.00	0.00	0.089844	1.916016	3.680664	109.270004	192.080002	-178.570007	7.00	0.000000	0.000000		
2.38	7.50	8.75	12.75	14.00	5.00	9.25	0.25	4.75	0.75	1.00	1.00	2.00	2.75	0.00	0.25	1.25	-0.127441	0.163574	0.989258	4.900000	4.480000	0.700000	705.00	-0.194847	-0.124200	0.00	0.00	0.00	0.00	0.00	0.00	0.00	0.00	0.00	0.25	0.25	0.00	0.00	0.00	0.00	0.00	0.796875	1.240234	2.656250	109.480003	7.560000	-75.739998	5.00	0.000000	0.000000		
2.39	7.50	9.00	12.00	13.50	4.50	9.00	0.25	4.50	0.75	1.00	1.00	2.00	2.75	0.25	0.50	1.25	-0.127441	0.163574	0.989258	4.900000	4.480000	0.700000	688.00	-0.191810	-0.124431	0.00	0.00	0.00	0.00	0.00	0.00	0.00	0.00	0.00	0.25	0.25	0.00	0.00	0.00	0.00	0.00	0.975098	0.598633	1.576660	48.299999	-127.330002	28.630001	5.00	0.000000	0.000000		
2.40	7.25	8.75	11.75	13.00	4.50	9.00	0.25	4.75	0.75	1.25	1.25	2.25	3.25	0.25	0.50	1.25	-0.141113	0.159668	1.001465	2.240000	8.120000	0.070000	691.00	-0.182104	-0.128377	0.00	0.00	0.00	0.00	0.00	0.00	0.00	0.00	0.00	0.25	0.00	0.00	0.00	0.00	0.00	0.00	0.363281	0.258789	0.714355	-121.449997	-202.649994	126.699997	2.00	0.000000	0.000000		
2.41	7.00	8.25	11.00	12.50	4.75	8.50	0.25	4.75	0.75	1.25	1.25	2.25	3.50	0.50	0.50	1.50	-0.141602	0.162598	0.989746	1.400000	9.660000	0.000000	674.00	-0.174371	-0.129398	0.00	0.00	0.00	0.00	0.00	0.00	0.00	0.00	0.00	0.25	0.00	0.00	0.00	0.00	0.00	0.00	0.350098	0.411133	0.528320	-146.789993	-194.320007	132.720001	2.00	0.000000	0.000000		
2.42	6.50	7.75	10.50	12.00	4.50	8.25	0.25	4.75	0.75	1.50	1.50	2.25	3.25	0.50	0.50	1.50	-0.142090	0.161133	0.995117	0.630000	10.780000	-0.350000	653.00	-0.167909	-0.130283																											
2.43	6.00	7.25	10.00	11.50	4.50	7.75	0.25	4.50	0.75	1.75	1.75	2.25	3.50	0.50	0.50	1.75	-0.146973	0.154785	0.992188	-0.210000	11.410000	-0.700000	633.00	-0.158612	-0.130918	0.00	0.00	0.00	0.00	0.00	0.00	0.00	0.00	0.00	0.00	0.00	0.00	0.00	0.00	0.00	0.00	0.409668	0.452637	0.533691	-123.410004	-192.919998	128.380005	0.00	0.000000	0.000000		
2.44	5.75	6.75	9.00	10.75	4.25	7.50	0.25	4.50	1.00	1.75	2.25	2.50	3.75	0.50	0.50	1.75	-0.137207	0.152832	0.979492	-0.770000	11.900000	-1.260000	616.00	-0.145219	-0.133940	0.00	0.00	0.00	0.00	0.00	0.00	0.00	0.00	0.00	0.00	0.00	0.00	0.00	0.00	0.00	0.00	0.384277	0.437012	0.719727	-73.709999	-207.270004	117.599998	0.00	0.000000	0.000000		
2.45	5.50	6.50	8.25	10.25	4.00	7.00	0.25	4.50	1.00	1.75	2.50	2.75	3.75	0.50	0.50	1.75	-0.135254	0.155762	0.984863	-0.910000	12.390000	-1.820000	596.00	-0.137598	-0.137135	0.00	0.00	0.00	0.00	0.00	0.00	0.00	0.00	0.00	0.00	0.00	0.00	0.00	0.00	0.00	0.00	0.250977	0.125000	0.923828	-2.520000	-260.610016	89.669998	0.00	0.000000	0.000000		
2.46	5.00	6.00	7.25	9.00	3.75	6.50	0.25	4.25	0.75	2.00	2.25	2.75	3.75	0.50	0.50	2.00	-0.139648	0.163574	0.985352	-1.470000	13.300000	-2.660000	552.00	-0.129088	-0.141150	0.00	0.00	0.00	0.00	0.00	0.00	0.00	0.00	0.00	0.00	0.00	0.00	0.00	0.00	0.00	0.00	0.185547	0.006836	0.880371	-1.330000	-283.779999	77.489998	0.00	0.000000	0.000000		
2.47	4.75	5.50	6.25	8.75	3.00	6.25	0.25	4.25	1.00	2.00	2.50	2.75	3.50	0.50	1.00	2.50	-0.145020	0.152344	0.980469	-1.610000	13.300000	-3.150000	533.00	-0.112400	-0.144955																											
2.48	4.50	5.25	5.50	8.75	2.75	5.75	0.25	4.25	1.25	2.00	2.75	2.75	3.25	0.50	0.75	2.50	-0.149902	0.157715	0.965820	-1.470000	13.230000	-3.570000	515.00	-0.106904	-0.145784	0.00	0.00	0.00	0.00	0.00	0.00	0.00	0.00	0.00	0.00	0.00	0.00	0.00	0.00	0.00	0.00	0.065430	0.055664	0.829590	-21.840000	-304.290009	63.349998	0.00	0.000000	0.000000		
2.49	4.25	4.75	5.00	7.75	2.00	5.25	0.25	4.25	1.25	2.25	3.25	3.00	3.75	0.50	0.50	2.25	-0.150391	0.161621	0.971680	-1.190000	13.160000	-3.920000	490.00	-0.091713	-0.151442	0.00	0.00	0.00	0.00	0.00	0.00	0.00	0.00	0.00	0.00	0.00	0.00	0.00	0.00	0.00	0.00	0.044434	0.155273	0.911133	-15.260000	-307.860016	61.950001	0.00	0.000000	0.000000		
2.50	4.00	4.25	4.75	6.75	2.00	4.75	0.00	4.25	1.00	2.50	3.25	3.50	4.00	1.00	0.75	2.75	-0.147461	0.153320	0.973145	-0.560000	13.020000	-4.340000	478.00	-0.070288	-0.156105	0.00	0.00	0.00	0.00	0.00	0.00	0.00	0.00	0.00	0.00	0.00	0.00	0.00	0.00	0.00	0.00	0.020508	0.225098	1.013672	2.380000	-317.239990	64.260002	0.00	0.000000	0.000000		
2.51	3.75	4.25	4.50	6.25	1.75	4.75	0.25	4.25	1.25	2.50	3.25	3.50	3.75	1.00	0.75	3.50	-0.148926	0.164062	0.967285	-0.630000	12.950000	-4.690000	474.00	-0.059411	-0.153478	0.00	0.00	0.00	0.00	0.00	0.00	0.00	0.00	0.00	0.00	0.00	0.00	0.00	0.00	0.00	0.00	-0.030273	0.207520	1.069824	20.370001	-329.980011	68.949997	0.00	0.000000	0.000000		
2.52	3.50	3.75	4.00	5.50	2.00	4.50	0.00	4.25	1.25	2.75	3.50	3.50	4.00	1.25	0.75	3.50	-0.160645	0.157227	0.981445	-0.420000	13.160000	-5.180000	460.00	-0.043224	-0.156034	0.00	0.00	0.00	0.00	0.00	0.00	0.00	0.00	0.00	0.00	0.00	0.00	0.00	0.00	0.00	0.00	-0.100586	0.198730	1.067871	32.270000	-339.010010	74.059998	0.00	0.000000	0.000000		
2.53	3.50	3.50	3.50	4.75	1.75	4.25	0.00	4.00	1.25	2.75	3.50	4.00	4.25	1.50	1.00	3.75	-0.160645	0.157227	0.981445	-0.420000	13.160000	-5.180000	449.00	-0.024848	-0.157809	0.00	0.00	0.00	0.00	0.00	0.00	0.00	0.00	0.00	0.00	0.00	0.00	0.00	0.00	0.00	0.00	-0.185547	0.183105	1.064941	38.290001	-341.529999	80.500000	0.00	0.000000	0.000000		
2.54	3.50	3.50	3.50	4.25	1.50	4.25	0.00	4.00	1.75	2.75	3.75	4.00	5.00	2.00	1.00	3.75	-0.159668	0.161133	0.978027	-0.910000	13.300000	-5.530000	460.00	-0.010215	-0.153533	0.00	0.00	0.00	0.00	0.00	0.00	0.00	0.00	0.00	0.00	0.00	0.00	0.00	0.00	0.00	0.00	-0.219238	0.180664	1.101562	40.180000	-337.190002	88.340004	0.00	0.000000	0.000000		
2.55	3.25	3.25	3.25	3.75	1.25	4.25	0.00	4.00	2.00	3.00	4.00	4.25	5.00	2.50	1.00	4.00	-0.161621	0.159180	0.974121	-1.680000	14.000000	-5.600000	460.00	0.008720	-0.150832	0.00	0.00	0.00	0.00	0.00	0.00	0.00	0.00	0.00	0.00	0.00	0.00	0.00	0.00	0.00	0.00	-0.232422	0.220703	1.159180	42.070000	-329.910004	95.269997	0.00	0.000000	0.000000		
2.56	3.25	2.50	2.75	3.75	1.00	4.00	0.00	4.00	2.50	3.25	4.00	4.50	5.00	2.75	1.00	4.00	-0.160156	0.169922	0.967773	-2.730000	14.700000	-5.880000	457.00	0.026511	-0.146475	0.00	0.00	0.00	0.00	0.00	0.00	0.00	0.00	0.00	0.00	0.00	0.00	0.00	0.00	0.00	0.00	-0.255371	0.266602	1.287109	49.070000	-325.500000	99.260002	0.00	0.000000	0.000000		
2.57	2.50	2.25	2.50	3.50	1.00	3.50	0.00	4.00	3.00	3.25	4.25	4.50	5.00	3.25	1.25	4.25	-0.163086	0.160645	0.983887	-4.130000	15.680000	-6.510000	453.00	0.051001	-0.141497	0.00	0.00	0.00	0.00	0.00	0.00	0.00	0.00	0.00	0.00	0.00	0.00	0.00	0.00	0.00	0.00	-0.288086	0.236328	1.426758	59.500000	-322.910004	100.449997	0.00	0.000000	0.000000		
2.58	2.00	2.00	2.25	3.25	1.00	2.75	0.00	3.75	3.25	3.75	4.75	4.50	5.00	3.50	2.25	4.50	-0.170898	0.176758	0.988281	-5.180000	16.799999	-7.280000	456.00	0.080428	-0.133466	0.00	0.00	0.00	0.00	0.00	0.00	0.00	0.00	0.00	0.00	0.00	0.00	0.00	0.00	0.00	0.00	-0.346680	0.161133	1.513672	65.379997	-320.390015	96.739998	0.00	0.000000	0.000000		
2.59	2.50	1.25	2.00	3.00	0.75	2.25	0.00	3.75	3.75	3.75	5.00	4.75	5.00	3.75	2.25	4.75	-0.181641	0.166504	0.978516	-4.970000	17.920000	-8.120000	456.00	0.095860	-0.125362	0.00	0.00	0.00	0.00	0.00	0.00	0.00	0.00	0.00	0.00	0.00	0.00	0.00	0.00	0.00	0.00	-0.479980	0.131836	1.646484	69.019997	-317.309998	87.220001	0.00	0.000000	0.000000		
2.60	1.75	1.00	1.25	2.25	0.75	2.00	0.00	3.50	4.00	4.25	5.25	5.25	4.50	4.00	2.50	5.25	-0.187012	0.155762	0.976074	-4.130000	19.389999	-9.030000	443.00	0.129742	-0.121557	0.00	0.00	0.00	0.00	0.00	0.00	0.00	0.00	0.00	0.00	0.00	0.00	0.00	0.00	0.00	0.00	-0.677734	0.156250	1.781738	74.480003	-314.019989	74.129997	0.00	0.000000	0.000000		
2.61	0.75	1.00	0.75	1.50	0.50	1.50	0.00	3.25	4.25	4.25	5.50	5.50	5.25	4.75	3.00	5.75	-0.178223	0.163086	0.961914	-3.290000	21.139999	-10.570000	437.00	0.169419	-0.123934	0.00	0.00	0.00	0.00	0.00	0.00	0.00	0.00	0.00	0.00	0.00	0.00	0.00	0.00	0.00	0.00	-0.892578	0.163574	1.891113	80.570000	-311.779999	62.860001	0.00	0.000000	0.000000		
2.62	0.00	0.75	0.50	1.50	0.50	1.25	0.00	3.00	4.50	4.50	6.25	5.75	5.75	5.25	3.25	6.75	-0.174805	0.181152	0.972168	-1.400000	23.030001	-13.160000	450.00	0.194415	-0.125132	0.00	0.00	0.00	0.00	0.00	0.00	0.00	0.00	0.00	0.00	0.00	0.00	0.00	0.00	0.00	0.00	-1.140137	0.145508	1.963867	82.529999	-309.329987	57.400002	0.00	0.000000	0.000000		
2.63	0.50	1.00	0.50	1.25	0.50	1.00	0.00	3.00	4.75	5.00	7.25	6.75	5.75	5.75	3.50	7.50	-0.201660	0.166016	0.963867	1.750000	24.500000	-15.750000	489.00	0.195997	-0.119486	0.00	0.00	0.00	0.00	0.00	0.00	0.00	0.00	0.00	0.00	0.00	0.00	0.00	0.00	0.00	0.00	-1.499512	0.165527	2.083496	76.300003	-306.179993	59.779999	0.00	0.000000	0.000000		
2.64	0.00	0.50	0.50	0.50	0.50	0.75	0.00	3.00	5.25	5.25	7.75	7.50	6.00	6.50	4.00	8.50	-0.214355	0.150391	0.986328	4.970000	26.110001	-17.360001	508.00	0.222903	-0.115358	0.00	0.00	0.00	0.00	0.00	0.00	0.00	0.00	0.00	0.00	0.00	0.00	0.00	0.00	0.00	0.00	-1.961914	0.216797	2.135742	62.230000	-302.540009	70.419998	0.00	0.000000	0.000000		
2.65	0.00	0.25	0.25	0.25	0.25	0.50	0.00	2.75	5.75	6.00	8.75	8.25	6.50	7.75	4.25	9.25	-0.204590	0.106445	0.972656	7.770000	28.630001	-16.870001	542.00	0.240129	-0.108186	0.00	0.00	0.00	0.00	0.00	0.00	0.00	0.00	0.00	0.00	0.00	0.00	0.00	0.00	0.00	0.00	-2.514160	0.250977	1.996094	46.619999	-297.149994	85.470001	0.00	0.000000	0.000000		
2.66	0.00	0.00	0.00	0.00	0.00	0.50	0.00	2.50	6.50	6.50	9.00	8.75	7.25	8.00	4.50	10.00	-0.193848	0.101074	1.032715	9.730000	34.369999	-13.510000	564.00	0.251673	-0.105458	0.00	0.00	0.00	0.00	0.00	0.00	0.00	0.00	0.00	0.00	0.00	0.00	0.00	0.00	0.00	0.00	-3.053223	0.220215	1.687988	38.360001	-287.209991	99.050003	0.00	0.000000	0.000000		
2.67	0.00	0.00	0.00	0.00	0.00	0.50	0.00	2.50	7.25	7.25	9.50	9.00	7.50	9.25	5.00	11.00	-0.220215	0.116699	1.078125	11.550000	45.709999	-9.100000	609.00	0.255671	-0.096859	0.00	0.00	0.00	0.00	0.00	0.00	0.00	0.00	0.00	0.00	0.00	0.00	0.00	0.00	0.00	0.00	-3.524902	0.144531	1.252930	41.369999	-269.010010	107.169998	0.00	0.000000	0.000000		
2.68	0.00	0.00	0.00	0.00	0.00	0.00	0.00	2.25	7.25	8.25	9.75	9.50	7.50	10.00	5.25	11.75	-0.220215	0.158691	1.101074	13.020000	61.180000	-7.420000	629.00	0.262325	-0.091682	0.00	0.00	0.00	0.00	0.00	0.00	0.00	0.00	0.00	0.00	0.00	0.00	0.00	0.00	0.00	0.00	-3.968750	-0.005859	0.766113	51.660000	-238.139999	107.379997	0.00	0.000000	0.000000		
2.69	0.00	0.00	0.00	0.00	0.00	0.00	0.00	1.75	7.50	8.50	9.75	9.75	7.00	10.75	5.50	12.75	-0.222656	0.177734	1.100586	12.250000	78.470001	-8.050000	639.00	0.268254	-0.083818	0.00	0.00	0.00	0.00	0.00	0.00	0.00	0.00	0.00	0.00	0.00	0.00	0.00	0.00	0.00	0.00	-4.479492	-0.296875	-0.107422	51.520000	-130.690002	75.180000	0.00	0.000000	0.000000		
2.70	0.00	0.00	0.00	0.00	0.00	0.00	0.00	1.25	7.25	9.00	9.75	9.50	7.25	11.00	5.25	13.00	-0.232910	0.175781	1.130859	8.610000	98.279999	-9.800000	635.00	0.271194	-0.081061	0.00	0.00	0.00	0.00	0.00	0.00	0.00	0.00	0.00	0.00	0.00	0.00	0.00	0.00	0.00	0.00	-4.479492	-0.296875	-0.107422	51.520000	-130.690002	75.180000	0.00	0.000000	0.000000		
2.71	0.00	0.00	0.00	0.00	0.00	0.00	0.00	1.25	7.25	9.00	9.50	9.25	7.00	11.50	5.50	13.00	-0.255371	0.178223	1.119141	3.990000	120.889999	-12.110000	634.00	0.273323	-0.077328	0.00	0.00	0.00	0.00	0.00	0.00	0.00	0.00	0.00	0.00	0.00	0.00	0.00	0.00	0.00	0.00	-4.888672	-0.383789	-1.340820	41.509998	-61.459999	49.560001	0.00	0.000000	0.000000		
2.72	0.00	0.00	0.00	0.00	0.00	0.00	0.00	0.75	7.25	8.50	9.25	9.00	6.25	11.75	5.50	13.00	-0.316406	0.209961	1.184570	-0.700000	168.770004	-19.809999	614.00	0.278711	-0.069292	0.00	0.00	0.00	0.00	0.00	0.00	0.00	0.00	0.00	0.00	0.00	0.00	0.00	0.00	0.00	0.00	-4.888672	-0.422852	-1.340820	-2.030000	89.110001	29.400000	0.00	0.000000	0.000000		
2.73	0.00	0.00	0.00	0.00	0.00	0.00	0.00	0.50	6.25	8.50	9.00	9.00	6.50	12.00	5.75	12.75	-0.354004	0.204102	1.202148	-3.010000	196.490005	-24.780001	601.00	0.281479	-0.074131	0.00	0.00	0.00	0.00	0.00	0.00	0.00	0.00	0.00	0.00	0.00	0.00	0.00	0.00	0.00	0.00	-0.224609	-0.009766	0.569824	-118.510002	299.459991	-0.770000	0.00	0.000000	0.000000		
2.74	0.00	0.00	0.00	0.00	0.00	0.00	0.00	0.50	5.75	8.50	9.00	8.75	6.25	12.00	5.75	12.25	-0.352051	0.225586	1.228516	-7.630000	231.490005	-30.450001	588.00	0.282092	-0.074438	0.50	1.00	0.75	1.00	0.00	0.00	0.00	0.00	0.00	0.00	0.00	0.00	0.00	0.00	0.00	0.00	-0.215332	0.278320	1.946777	-116.620003	326.480011	2.450000	31.00	0.000000	0.000000	21.00	
2.75	0.00	0.00	0.00	0.00	0.00	0.00	0.00	0.00	5.50	8.50	8.50	8.50	5.75	12.00	5.50	11.75	-0.405762	0.316895	1.302246	-16.940001	266.980011	-38.709999	562.00	0.286586	-0.067221	4.75	4.50	4.75	5.50	0.00	0.00	0.00	0.00	0.00	0.00	0.00	0.00	0.00	0.00	0.00	0.00	0.081543	-0.259766	2.610352	-61.389999	262.290009	19.530001	187.00	-0.335967	-0.050804		
2.76	0.00	0.00	0.00	0.00	0.00	0.00	0.00	0.00	5.25	8.50	8.25	8.25	5.50	11.50	5.50	11.00	-0.414062	0.414551	1.465820	-28.490000	299.320007	-52.500000	544.00	0.286395	-0.066489	8.00	7.25	8.50	9.25	0.00	0.00	0.00	0.00	0.00	0.00	0.00	0.00	0.00	0.00	0.00	0.00	-0.574219	-0.664551	1.728027	-34.930000	224.559998	5.390000	316.00	-0.334142	-0.047461		
2.77	0.00	0.00	0.00	0.00	0.00	0.00	0.00	0.00	5.25	8.50	7.75	7.50	5.25	11.00	5.25	10.25	-0.499023	0.427246	1.483887	-39.130001	333.690002	-70.349998	520.00	0.286468	-0.061313	9.25	8.50	11.25	14.25	0.25	1.00	0.00	0.25	0.00	0.00	0.00	0.00	0.00	0.00	0.00	0.00	-1.445801	0.029785	4.527344	-47.740002	263.480011	-18.549999	433.00	-0.320212	-0.065080		
2.78	0.00	0.00	0.00	0.00	0.00	0.00	0.00	0.00	4.75	8.25	7.25	6.75	4.50	10.50	5.25	8.75	-0.646484	0.420410	1.952637	-51.869999	376.390015	-89.389999	482.00	0.288159	-0.055090	9.25	8.50	14.25	17.50	3.50	6.50	0.00	2.25	0.00	0.00	0.00	0.50	0.50	0.00	0.00	0.00	-0.949219	-0.099121	2.437500	-57.959999	109.270004	-6.510000	620.00	-0.269626	-0.096542		
2.79	0.00	0.00	0.00	0.00	0.00	0.00	0.00	0.00	4.50	7.50	6.50	5.50	4.00	9.50	4.75	7.25	-0.656738	0.499023	1.980957	-59.849998	424.829987	-106.959999	429.00	0.288744	-0.047220	8.75	8.00	16.00	18.00	5.50	8.75	0.00	2.75	0.00	0.00	0.00	0.50	0.50	0.00	0.00	0.25	-0.498047	0.229004	1.111328	-26.950001	-4.060000	-5.320000	685.00	-0.255985	-0.098154		
2.80	0.00	0.00	0.00	0.00	0.00	0.00	0.00	0.00	4.25	6.75	5.75	5.25	3.25	8.50	4.25	5.75	-0.808594	0.449219	2.278320	-56.070000	457.029999	-120.330002	383.00	0.288031	-0.041413	8.50	7.75	16.00	17.75	6.75	9.25	0.00	3.00	0.00	0.00	0.00	0.50	0.50	0.00	0.00	0.25	-0.258301	0.442871	1.003418	-27.370001	14.980000	1.680000	699.00	-0.250589	-0.098035		
2.81	0.00	0.00	0.00	0.00	0.00	0.00	0.00	0.00	3.75	6.00	5.25	4.50	2.50	6.50	3.50	4.50	-1.183105	0.623535	3.033691	-39.689999	468.089996	-124.250000	323.00	0.284487	-0.039423	8.25	7.25	15.25	17.00	7.25	9.75	0.00	3.75	0.00	0.00	0.25	0.50	0.75	0.00	0.00	0.25	-0.078613	0.056152	1.085938	-13.230000	4.060000	9.170000	702.00	-0.240566	-0.104567		
2.82	0.00	0.00	0.00	0.00	0.00	0.00	0.00	0.00	3.00	5.25	4.50	4.00	2.00	4.75	2.50	4.00	-1.099609	0.697754	2.803223	14.140000	471.799988	-117.809998	265.00	0.279517	-0.046800	8.00	6.50	15.00	16.25	7.50	10.00	0.25	3.75	0.00	0.00	0.00	0.75	1.00	0.00	0.25	0.25	-0.122559	-0.004883	0.990234	-0.070000	-15.050000	4.760000	696.00	-0.232100	-0.103977		
2.83	0.00	0.00	0.00	0.00	0.00	0.00	0.00	0.00	2.25	4.50	3.75	3.50	1.50	3.50	1.75	3.50	-1.056152	0.531250	3.359375	34.790001	451.570007	-128.100006	213.00	0.275893	-0.054257	7.50	6.50	14.50	15.50	7.75	10.25	0.25	4.00	0.25	0.25	0.00	0.75	1.25	0.25	0.25	1.00	-0.225098	0.236328	0.996582	9.310000	-20.860001	4.970000	700.00	-0.218539	-0.106129		
2.84	0.00	0.00	0.00	0.00	0.00	0.00	0.00	0.00	1.50	4.25	3.25	2.75	1.00	1.25	1.25	2.50	-0.846680	0.533691	3.280273	9.100000	445.339996	-140.910004	158.00	0.263015	-0.068199	7.50	6.50	14.00	15.50	8.50	10.50	0.25	4.25	0.25	0.50	0.25	0.75	1.75	0.25	0.50	1.25	-0.168945	0.149414	0.988281	10.290000	-18.129999	7.350000	721.00	-0.207774	-0.109434		15.00
2.85	0.00	0.00	0.00	0.00	0.00	0.00	0.00	0.00	1.25	3.50	2.50	2.00	0.50	0.00	0.75	1.50	-0.042480	0.791016	2.911621	-30.799999	444.500000	-155.750000	110.00	0.250143	-0.063820	7.50	6.25	13.75	15.50	9.00	10.50	0.25	4.25	0.50	0.50	0.50	1.00	2.00	0.25	0.50	1.50	-0.136230	0.126465	1.028320	6.230000	-13.510000	5.460000	732.00	-0.199723	-0.109165		
2.86	0.00	0.00	0.00	0.00	0.00	0.00	0.00	0.00	0.75	2.25	1.50	1.25	0.00	0.00	0.50	1.00	0.610352	0.794434	2.180176	-62.230000	436.239990	-174.229996	67.00	0.254465	-0.050495	7.50	6.25	14.00	15.25	9.25	10.50	0.25	4.75	0.50	0.50	0.50	1.00	2.00	0.25	0.50	1.50	-0.188477	0.164551	1.036621	1.820000	-9.380000	3.920000	742.00	-0.197644	-0.110163		
2.87	0.00	0.00	0.00	0.00	0.00	0.00	0.00	0.00	0.00	1.50	1.00	0.25	0.00	0.00	0.50	0.75	1.428711	0.781250	2.079590	-78.400002	428.750000	-189.839996	35.00	0.000000	0.000000	7.50	6.25	14.00	15.25	9.50	10.75	0.50	4.75	0.50	0.50	0.50	1.00	2.50	0.25	0.50	1.50	-0.133789	0.143066	1.014648	-0.560000	-6.650000	3.850000	754.00	-0.194028	-0.110357		
2.88	0.00	0.00	0.00	0.00	0.00	0.00	0.00	0.00	0.00	0.75	0.50	0.00	0.00	0.00	0.25	0.50	1.362305	1.699707	3.336426	2.520000	157.990005	-125.790001	17.00	0.000000	0.000000	7.50	6.25	13.50	15.00	9.75	10.75	0.50	4.75	1.00	0.75	0.75	1.50	2.50	0.25	0.50	1.50	-0.120117	0.155762	1.016602	-1.260000	-4.410000	3.150000	765.00	-0.184286	-0.108383		
2.89	0.00	0.00	0.00	0.00	0.00	0.00	0.00	0.00	0.00	0.50	0.50	0.00	0.00	0.00	0.25	0.00	1.362305	1.699707	3.336426	2.520000	157.990005	-125.790001	12.00	0.000000	0.000000	7.50	6.00	13.00	14.75	9.50	10.75	0.50	4.75	1.00	0.75	0.75	1.50	2.50	0.50	0.50	1.50	-0.131348	0.147461	1.011230	-1.750000	-1.890000	2.310000	755.00	-0.181397	-0.108997		
2.90	0.00	0.00	0.00	0.00	0.00	0.00	0.00	0.00	0.00	0.75	0.50	0.00	0.00	0.00	0.00	0.00	1.200195	0.731934	1.547363	54.740002	-162.820007	15.960000	12.00	0.000000	0.000000	7.50	6.00	12.75	14.50	9.25	10.50	0.50	4.75	1.50	1.50	0.75	1.50	2.75	0.50	0.50	1.75	-0.129395	0.141602	1.019043	-1.610000	0.420000	2.030000	761.00	-0.171836	-0.105930		
2.91	0.00	0.00	0.00	0.00	0.00	0.00	0.00	0.00	0.00	0.50	0.50	0.00	0.00	0.00	0.00	0.00	0.952637	0.731934	1.547363	54.740002	-162.820007	15.960000	10.00	0.000000	0.000000	7.50	6.00	12.25	14.00	9.00	10.00	0.50	4.75	2.25	1.50	0.75	1.50	2.75	0.50	0.75	1.75	-0.126953	0.154297	1.021973	-1.260000	2.590000	1.890000	755.00	-0.163770	-0.101315		
2.92	0.00	0.00	0.00	0.00	0.00	0.00	0.00	0.00	0.00	0.25	0.25	0.00	0.00	0.00	0.00	0.00	0.681641	0.444824	0.812988	22.750000	-197.050003	61.670002	5.00	0.000000	0.000000	7.25	5.75	11.50	13.75	8.50	9.75	0.50	4.25	2.75	1.50	1.25	1.75	2.75	0.75	0.75	2.00	-0.136719	0.148926	1.033691	-1.470000	4.690000	1.470000	742.00	-0.153024	-0.098473		
2.93	0.00	0.00	0.00	0.00	0.00	0.00	0.00	0.00	0.00	0.50	0.25	0.00	0.00	0.00	0.00	0.00	0.615234	0.425293	0.905273	27.790001	-198.169998	72.660004	7.00	0.000000	0.000000	7.00	5.50	11.00	12.50	8.00	9.50	0.50	4.25	3.00	1.75	1.50	1.75	3.00	0.75	0.75	2.00	-0.141113	0.155762	1.029785	-2.030000	6.580000	1.050000	722.00	-0.143360	-0.097578		
2.94	0.00	0.00	0.00	0.00	0.00	0.00	0.00	0.00	0.00	0.00	0.00	0.00	0.00	0.00	0.00	0.00	0.618652	0.353516	1.038086	44.380001	-217.000000	82.110001	0.00	0.000000	0.000000	7.00	4.75	10.50	12.25	7.75	9.00	0.50	4.25	3.25	2.00	1.50	1.75	3.00	0.75	0.75	2.00	-0.136719	0.145508	1.026855	-2.660000	8.540000	0.630000	706.00	-0.136535	-0.095073		
2.95	0.00	0.00	0.00	0.00	0.00	0.00	0.00	0.00	0.00	0.00	0.00	0.00	0.00	0.00	0.00	0.00	0.530762	0.190918	1.099609	58.170002	-249.130005	90.580002	0.00	0.000000	0.000000	6.25	4.25	10.25	10.75	7.50	8.25	0.50	4.00	3.25	2.00	1.50	2.00	2.75	0.75	0.75	2.25	-0.131836	0.157715	1.022949	-3.010000	10.360000	0.070000	665.00	-0.127255	-0.091654		
2.96	0.00	0.00	0.00	0.00	0.00	0.00	0.00	0.00	0.00	0.00	0.00	0.00	0.00	0.00	0.00	0.00	0.400879	0.016113	1.048828	59.080002	-278.179993	95.059998	0.00	0.000000	0.000000	5.50	4.00	9.50	9.75	6.75	7.00	0.50	3.75	3.50	2.25	1.75	2.00	2.50	0.75	0.75	2.50	-0.143066	0.162109	1.014160	-3.710000	11.900000	-0.700000	622.00	-0.114367	-0.087318		
2.97	0.00	0.00	0.00	0.00	0.00	0.00	0.00	0.00	0.00	0.00	0.00	0.00	0.00	0.00	0.00	0.00	0.293457	-0.104492	0.931152	50.889999	-294.839996	92.610001	0.00	0.000000	0.000000	5.00	3.50	9.00	8.25	6.25	6.75	0.50	3.50	3.50	2.50	1.75	2.25	2.50	1.00	1.00	2.75	-0.146973	0.157715	0.999023	-6.020000	13.790000	-2.450000	592.00	-0.096953	-0.084870		
2.98	0.00	0.00	0.00	0.00	0.00	0.00	0.00	0.00	0.00	0.00	0.00	0.00	0.00	0.00	0.00	0.00	0.217773	-0.149902	0.908203	43.330002	-301.630005	82.669998	0.00	0.000000	0.000000	4.50	3.50	8.50	7.75	5.75	6.25	0.50	3.50	3.50	2.75	1.75	2.00	2.50	1.00	1.25	2.75	-0.146973	0.157715	0.999023	-6.020000	13.790000	-2.450000	570.00	-0.088237	-0.084930		
2.99	0.00	0.00	0.00	0.00	0.00	0.00	0.00	0.00	0.00	0.00	0.00	0.00	0.00	0.00	0.00	0.00	0.160156	-0.143555	0.953613	45.639999	-305.829987	68.250000	0.00	0.000000	0.000000	3.75	2.75	7.75	7.00	5.25	5.25	0.50	3.00	3.75	3.00	2.25	2.25	2.50	1.25	1.25	2.75	-0.163086	0.147949	0.996582	-7.560000	14.630000	-4.130000	534.00	-0.064876	-0.078542		
3.00	0.00	0.00	0.00	0.00	0.00	0.00	0.00	0.00	0.00	0.00	0.00	0.00	0.00	0.00	0.00	0.00	0.127441	-0.155273	1.040527	59.080002	-311.640015	53.410000	0.00	0.000000	0.000000	3.50	2.00	6.25	6.00	4.50	4.50	0.50	2.50	4.25	3.00	2.25	2.25	2.25	1.25	1.50	2.75	-0.163086	0.147949	0.996582	-7.560000	14.630000	-4.130000	484.00	-0.040792	-0.069356		
3.01	0.00	0.00	0.00	0.00	0.00	0.00	0.00	0.00	0.00	0.00	0.00	0.00	0.00	0.00	0.00	0.00	0.093262	-0.172852	1.139648	76.580002	-318.920013	41.860001	0.00	0.000000	0.000000	3.25	1.50	5.50	5.50	4.25	4.25	0.50	2.50	4.50	3.25	3.00	2.50	2.25	1.50	1.50	3.25	-0.151855	0.143555	0.996582	-8.470000	16.660000	-5.880000	480.00	-0.016083	-0.069217		
3.02	0.00	0.00	0.00	0.00	0.00	0.00	0.00	0.00	0.00	0.00	0.00	0.00	0.00	0.00	0.00	0.00	0.060059	-0.225586	1.234863	88.129997	-326.059998	35.630001	0.00	0.000000	0.000000	2.50	1.50	4.75	4.75	3.50	3.75	0.25	2.00	4.75	3.75	3.00	2.50	2.25	1.75	2.25	3.25	-0.158203	0.140137	0.995605	-8.470000	18.200001	-6.440000	451.00	0.014454	-0.064943		
3.03	0.00	0.00	0.00	0.00	0.00	0.00	0.00	0.00	0.00	0.00	0.00	0.00	0.00	0.00	0.00	0.00	0.016113	-0.250488	1.323242	91.000000	-332.010010	34.720001	0.00	0.000000	0.000000	1.50	1.25	4.25	3.50	2.75	2.50	0.25	1.75	5.25	3.75	3.00	2.50	2.25	2.25	2.25	3.25	-0.163086	0.136230	1.005371	-8.610000	19.809999	-6.930000	409.00	0.054354	-0.051392		
3.04	0.00	0.00	0.00	0.00	0.00	0.00	0.00	0.00	0.00	0.00	0.00	0.00	0.00	0.00	0.00	0.00	-0.046875	-0.187500	1.519531	80.989998	-341.250000	44.520000	0.00	0.000000	0.000000	0.75	1.00	3.50	3.25	2.00	2.00	0.25	1.50	5.50	4.00	3.25	2.50	2.25	2.50	2.50	3.75	-0.159668	0.144043	1.008789	-8.890000	21.700001	-7.770000	388.00	0.090284	-0.049560		
3.05	0.00	0.00	0.00	0.00	0.00	0.00	0.00	0.00	0.00	0.00	0.00	0.00	0.00	0.00	0.00	0.00	-0.046875	-0.187500	1.519531	80.989998	-341.250000	44.520000	0.00	0.000000	0.000000	1.00	1.00	2.75	3.00	1.50	1.50	0.25	1.25	5.50	4.25	3.25	2.50	2.00	2.75	2.75	3.75	-0.172363	0.151855	1.012695	-9.520000	24.219999	-8.960000	371.00	0.108453	-0.041609		
3.06	0.00	0.00	0.00	0.00	0.00	0.00	0.00	0.00	0.00	0.00	0.00	0.00	0.00	0.00	0.00	0.00	-0.105957	-0.113770	1.639160	76.510002	-345.589996	53.130001	0.00	0.000000	0.000000	0.50	0.50	2.50	2.00	1.25	1.00	0.00	1.00	5.50	4.25	3.00	2.50	2.00	3.00	3.00	4.25	-0.171875	0.149414	0.998047	-9.940000	26.950001	-10.780000	340.00	0.148548	-0.034945		
3.07	0.00	0.00	0.00	0.00	0.00	0.00	0.00	0.00	0.00	0.00	0.00	0.00	0.00	0.00	0.00	0.00	-0.194824	-0.054199	1.769043	75.320000	-350.279999	63.980000	0.00	0.000000	0.000000	0.00	0.25	1.50	1.50	0.50	0.50	0.00	0.75	5.50	4.50	3.50	2.50	2.00	3.50	3.00	4.25	-0.190918	0.143555	1.004883	-9.030000	29.680000	-12.740000	313.00	0.199564	-0.029648		
3.08	0.00	0.00	0.00	0.00	0.00	0.00	0.00	0.00	0.00	0.00	0.00	0.00	0.00	0.00	0.00	0.00	-0.637695	-0.064941	1.940918	78.680000	-355.250000	78.190002	0.00	0.000000	0.000000	0.00	0.25	0.75	1.00	0.50	0.50	0.00	0.75	6.00	4.50	3.75	2.50	2.00	4.00	3.50	4.75	-0.203613	0.150391	0.988770	-7.000000	33.810001	-14.910000	320.00	0.226609	-0.024867		
3.09	0.00	0.00	0.00	0.00	0.00	0.00	0.00	0.00	0.00	0.00	0.00	0.00	0.00	0.00	0.00	0.00	-0.897949	-0.055664	1.988770	78.050003	-354.480011	81.620003	0.00	0.000000	0.000000	0.00	0.25	0.75	1.00	0.00	0.25	0.00	0.50	6.25	5.00	4.00	2.75	1.75	4.25	3.75	4.75	-0.212891	0.121094	1.036133	-5.670000	41.580002	-15.400000	324.00	0.240698	-0.015494		
3.10	0.00	0.00	0.00	0.00	0.00	0.00	0.00	0.00	0.00	0.00	0.00	0.00	0.00	0.00	0.00	0.00	-1.189941	-0.031250	2.000977	72.099998	-353.220001	86.099998	0.00	0.000000	0.000000	0.00	0.00	0.00	0.75	0.00	0.00	0.00	0.50	6.25	5.50	4.00	2.75	1.75	4.75	4.00	5.00	-0.211914	0.133789	1.020020	-5.600000	49.980000	-15.400000	321.00	0.268055	-0.011511		
3.11	0.00	0.00	0.00	0.00	0.00	0.00	0.00	0.00	0.00	0.00	0.00	0.00	0.00	0.00	0.00	0.00	-1.563477	0.031250	2.015137	59.779999	-350.769989	92.610001	0.00	0.000000	0.000000	0.00	0.00	0.00	0.25	0.00	0.00	0.00	0.50	6.75	5.25	4.00	3.00	2.00	5.25	4.50	5.50	-0.234863	0.124023	1.022949	-6.160000	56.630001	-15.960000	335.00	0.279699	-0.009539		
3.12	0.00	0.00	0.00	0.00	0.00	0.00	0.00	0.00	0.00	0.00	0.00	0.00	0.00	0.00	0.00	0.00	-1.999512	0.110352	1.952637	45.220001	-345.450012	100.029999	0.00	0.000000	0.000000	0.00	0.00	0.25	0.25	0.00	0.00	0.00	0.50	7.00	5.50	4.25	3.25	2.00	5.50	4.75	6.00	-0.242676	0.116699	0.987793	-7.070000	62.369999	-15.890000	355.00	0.276624	-0.010210		
3.13	0.00	0.00	0.00	0.00	0.00	0.00	0.00	0.00	0.00	0.00	0.00	0.00	0.00	0.00	0.00	0.00	-2.528809	0.152832	1.918945	31.290001	-335.929993	104.300003	0.00	0.000000	0.000000	0.00	0.00	0.00	0.25	0.00	0.00	0.00	0.25	7.25	6.00	4.75	3.25	2.00	6.75	5.00	6.50	-0.235840	0.095215	0.946777	-6.580000	64.959999	-14.840000	376.00	0.286641	-0.003104		
3.14	0.00	0.00	0.00	0.00	0.00	0.00	0.00	0.00	0.00	0.00	0.00	0.00	0.00	0.00	0.00	0.00	-3.115234	0.150391	1.795410	19.879999	-321.299988	101.779999	0.00	0.000000	0.000000	0.00	0.25	0.00	0.00	0.00	0.00	0.00	0.25	8.00	6.50	4.75	3.25	2.00	7.75	5.25	7.75	-0.239746	0.062988	0.977539	-5.810000	65.029999	-12.600000	406.00	0.289598	0.002573		
3.15	0.00	0.00	0.00	0.00	0.00	0.00	0.00	0.00	0.00	0.00	0.00	0.00	0.00	0.00	0.00	0.00	-3.640137	0.152832	1.542969	14.980000	-301.630005	94.430000	0.00	0.000000	0.000000	0.00	0.25	0.00	0.00	0.00	0.00	0.00	0.25	8.50	7.00	4.50	3.25	2.25	9.25	5.75	8.50	-0.251465	0.054199	1.038086	-7.140000	69.580002	-8.190000	437.00	0.293626	0.006545		
3.16	0.00	0.00	0.00	0.00	0.00	0.00	0.00	0.00	0.00	0.00	0.00	0.00	0.00	0.00	0.00	0.00	-4.073730	0.096191	1.229492	19.460001	-275.940002	82.320000	0.00	0.000000	0.000000	0.00	0.00	0.00	0.00	0.00	0.00	0.00	0.25	9.25	7.00	5.00	3.50	2.25	9.75	6.25	9.50	-0.288574	0.116699	1.102051	-9.800000	81.129997	-4.620000	465.00	0.297868	0.006744		
3.17	0.00	0.00	0.00	0.00	0.00	0.00	0.00	0.00	0.00	0.00	0.00	0.00	0.00	0.00	0.00	0.00	-4.610840	0.009277	0.663574	28.840000	-241.570007	67.340004	0.00	0.000000	0.000000	0.00	0.00	0.00	0.00	0.00	0.00	0.00	0.25	9.50	7.50	5.00	3.50	2.00	10.00	6.50	9.75	-0.315918	0.159668	1.116699	-11.550000	97.860001	-5.390000	476.00	0.298762	0.010370		
3.18	0.00	0.00	0.00	0.00	0.00	0.00	0.00	0.00	0.00	0.00	0.00	0.00	0.00	0.00	0.00	0.00	-5.138672	-0.364746	0.036133	-18.410000	-104.440002	43.330002	0.00	0.000000	0.000000	0.00	0.00	0.00	0.00	0.00	0.00	0.00	0.00	9.25	7.25	5.00	3.50	1.75	10.75	6.50	9.75	-0.336426	0.155273	1.162109	-13.860000	118.720001	-8.540000	471.00	0.303589	0.015472		
3.19	0.00	0.00	0.00	0.00	0.00	0.00	0.00	0.00	0.00	0.00	0.00	0.00	0.00	0.00	0.00	0.00	-5.177734	-0.453613	-1.519531	-56.000000	-36.189999	23.309999	0.00	0.000000	0.000000	0.00	0.00	0.00	0.00	0.00	0.00	0.00	0.00	9.25	7.75	4.75	3.50	1.75	11.25	6.50	9.50	-0.355957	0.172852	1.195801	-18.200001	142.940002	-12.740000	476.00	0.304103	0.018812		
3.20	0.00	0.00	0.25	0.00	0.00	0.00	0.00	0.00	0.00	0.00	0.00	0.00	0.00	0.00	0.00	0.00	-5.781738	-0.458496	-0.477539	-100.730003	61.670002	10.080000	3.00	0.000000	0.000000	0.00	0.00	0.00	0.00	0.00	0.00	0.00	0.00	9.50	8.25	4.75	3.50	1.75	11.50	6.50	9.00	-0.380371	0.200195	1.254395	-23.450001	170.729996	-18.760000	483.00	0.303338	0.023201		
3.21	0.50	0.00	0.50	0.75	0.00	0.00	0.00	0.00	0.00	0.00	0.00	0.00	0.00	0.00	0.00	0.00	-5.290527	-0.116211	-0.685059	-105.629997	156.169998	12.600000	17.00	0.000000	0.000000	0.00	0.00	0.00	0.00	0.00	0.00	0.00	0.00	9.50	7.75	4.50	3.25	1.50	11.75	6.50	8.50	-0.395508	0.254395	1.296875	-29.610001	200.199997	-27.299999	471.00	0.305584	0.029612		11.00
3.22	4.00	1.75	1.25	2.00	0.00	0.00	0.00	0.00	0.00	0.00	0.00	0.00	0.00	0.00	0.00	0.00	-1.919922	0.224609	0.662109	-70.279999	263.200012	45.709999	85.00	-0.357888	-0.019857	0.00	0.00	0.00	0.00	0.00	0.00	0.00	0.00	9.25	8.25	4.25	3.00	1.25	11.50	6.25	7.50	-0.412598	0.298340	1.343750	-38.920002	230.229996	-40.599998	457.00	0.305178	0.036709		
3.23	5.50	5.25	4.00	5.50	0.00	0.00	0.00	0.00	0.00	0.00	0.00	0.00	0.00	0.00	0.00	0.00	-0.750488	-0.141113	1.826172	-16.590000	306.110016	68.320000	192.00	-0.343919	-0.054274	0.00	0.00	0.00	0.00	0.00	0.00	0.00	0.00	9.25	8.50	4.25	3.00	1.25	11.00	5.75	6.00	-0.463867	0.305664	1.393555	-48.509998	262.850006	-54.950001	443.00	0.301848	0.042839		
3.24	9.00	9.00	6.75	9.25	0.00	0.50	0.00	0.25	0.00	0.00	0.00	0.00	0.00	0.00	0.00	0.00	-0.575195	-0.452637	2.275391	45.290001	231.490005	36.400002	331.00	-0.337391	-0.062654	0.00	0.00	0.00	0.00	0.00	0.00	0.00	0.00	9.25	8.25	4.00	2.75	0.75	10.75	5.50	5.00	-0.508789	0.311523	1.455566	-55.299999	299.529999	-69.160004	422.00	0.302616	0.054634		
3.25	11.50	11.00	10.75	13.50	0.25	4.00	0.25	0.50	0.00	0.00	0.00	0.00	0.25	0.00	0.00	0.00	-0.575195	-0.452637	2.275391	45.290001	231.490005	36.400002	501.00	-0.311975	-0.075183	0.00	0.00	0.00	0.00	0.00	0.00	0.00	0.00	9.25	9.00	4.00	2.50	0.50	10.00	5.00	4.25	-0.590820	0.395020	1.828125	-50.119999	399.980011	-103.040001	410.00	0.299417	0.062580		
3.26	11.25	10.00	13.00	15.00	1.75	5.25	0.25	1.75	0.00	0.00	0.00	0.50	0.75	0.00	0.00	0.00	-0.745605	0.110352	1.598633	-35.279999	85.540001	-9.940000	582.00	-0.282820	-0.086611	0.00	0.00	0.00	0.00	0.00	0.00	0.00	0.00	8.25	8.50	3.75	2.50	0.50	9.25	4.25	3.50	-0.590820	0.395020	1.828125	-50.119999	399.980011	-103.040001	374.00	0.297541	0.061696		
3.27	10.00	9.25	13.75	15.25	2.50	6.50	0.25	3.00	0.00	0.00	0.00	0.50	0.75	0.25	0.00	0.00	-0.383789	0.377930	1.212891	-25.969999	51.240002	2.660000	614.00	-0.264466	-0.097696	0.00	0.00	0.00	0.00	0.00	0.00	0.00	0.00	7.25	7.75	3.50	2.25	0.50	7.25	3.50	2.75	-1.062500	0.742188	2.618164	-34.090000	487.619995	-137.759995	324.00	0.292776	0.059728		
3.28	8.75	9.00	13.25	14.50	3.25	7.50	0.25	3.75	0.00	0.00	0.25	0.50	1.00	0.00	0.00	0.25	-0.000488	0.132812	0.999512	-23.379999	45.290001	6.930000	619.00	-0.250831	-0.109798	0.00	0.00	0.00	0.00	0.00	0.00	0.00	0.00	6.25	6.75	3.00	2.00	0.50	5.25	2.75	2.50	-1.062500	0.742188	2.618164	-34.090000	487.619995	-137.759995	271.00	0.287854	0.055082		
3.29	8.00	8.50	12.75	14.00	4.25	8.00	0.25	4.00	0.00	0.25	0.50	1.00	1.25	0.25	0.00	0.50	-0.128906	0.004883	1.095215	-6.860000	8.540000	3.500000	631.00	-0.231725	-0.114111	0.00	0.00	0.00	0.00	0.00	0.00	0.00	0.00	5.50	5.50	2.50	1.50	0.50	4.00	1.50	2.00	-1.342773	0.583008	2.991211	7.490000	461.790009	-154.770004	216.00	0.281770	0.063491		
3.30	7.25	8.00	12.75	13.75	4.75	8.75	0.25	4.50	0.25	0.75	0.50	1.25	2.00	0.25	0.25	0.50	-0.316895	0.197266	1.061035	7.210000	-6.930000	0.280000	655.00	-0.211101	-0.119841	0.00	0.00	0.00	0.00	0.00	0.00	0.00	0.00	4.75	4.50	1.75	1.50	0.50	2.25	1.00	1.75	-1.178223	0.543457	2.981445	-24.010000	421.610016	-173.039993	171.00	0.273117	0.057658		
3.31	6.75	7.75	12.50	13.50	5.00	9.25	0.25	5.00	0.75	0.75	0.75	1.50	2.50	0.25	0.50	1.00	-0.205566	0.181641	1.068359	11.270000	-3.290000	3.150000	677.00	-0.192105	-0.124662	0.00	0.00	0.00	0.00	0.00	0.00	0.00	0.00	3.25	3.75	1.50	1.00	0.25	1.25	0.75	1.25	-0.612305	0.808105	2.815918	-39.689999	404.529999	-190.889999	124.00	0.269410	0.054029	25.00	
3.32	6.50	7.25	12.00	13.25	5.50	9.50	0.50	5.25	0.75	1.00	1.00	2.25	3.50	0.25	0.50	1.25	-0.111328	0.117676	0.978516	11.270000	-1.260000	2.170000	699.00	-0.174103	-0.130378	0.00	0.00	0.00	0.00	0.00	0.00	0.00	0.00	2.50	2.75	1.25	0.75	0.00	0.75	0.50	0.75	0.393066	1.070801	2.230957	-58.450001	387.100006	-208.880005	90.00	0.266360	0.064859		
3.33	6.25	7.25	11.75	12.75	6.00	9.75	0.50	5.50	1.25	1.00	1.50	2.75	4.00	0.50	0.75	1.50	-0.199219	0.185547	1.022461	10.220000	-0.420000	0.420000	725.00	-0.155982	-0.130502	0.00	0.00	0.00	0.00	0.00	0.00	0.00	0.00	1.25	1.75	0.75	0.00	0.00	0.50	0.25	0.25	1.067383	0.929688	1.534180	-73.150002	354.269989	-226.449997	46.00	0.000000	0.000000		
3.34	6.00	6.75	11.75	12.75	6.00	9.75	0.50	5.75	1.25	1.75	1.50	2.75	4.00	0.75	0.75	2.00	-0.167969	0.172852	1.026367	7.770000	2.100000	0.420000	733.00	-0.145876	-0.130220	0.00	0.00	0.00	0.00	0.00	0.00	0.00	0.00	0.50	1.25	0.25	0.00	0.00	0.25	0.25	0.00	1.385254	1.578125	1.542969	-35.700001	287.630005	-214.199997	25.00	0.000000	0.000000		
3.35	6.00	6.75	11.50	12.25	6.00	9.75	0.50	6.00	1.25	2.00	2.50	3.25	5.00	1.25	0.75	2.50	-0.139160	0.156250	1.009766	6.930000	4.200000	0.840000	760.00	-0.127948	-0.134287	0.00	0.00	0.00	0.00	0.00	0.00	0.00	0.00	0.50	1.00	0.25	0.00	0.00	0.25	0.00	0.00	0.155273	2.121582	3.769043	77.489998	170.029999	-123.129997	20.00	0.000000	0.000000		
3.36	5.75	6.75	11.00	12.00	6.25	9.25	0.50	6.50	1.25	1.75	2.75	3.50	5.00	1.25	1.00	3.25	-0.136719	0.187500	0.992676	6.650000	5.880000	0.560000	763.00	-0.119316	-0.138819	0.00	0.00	0.00	0.00	0.00	0.00	0.00	0.00	0.25	0.50	0.25	0.00	0.00	0.00	0.00	0.00	0.826172	1.147949	2.375000	105.349998	8.190000	-23.870001	10.00	0.000000	0.000000		
3.37	5.50	6.50	10.75	11.75	6.00	9.25	0.50	6.50	1.75	2.50	2.50	3.50	5.50	1.25	1.00	3.75	-0.137207	0.174316	1.002441	5.460000	7.210000	-0.280000	769.00	-0.108327	-0.137852	0.00	0.00	0.00	0.00	0.00	0.00	0.00	0.00	0.25	0.50	0.00	0.00	0.00	0.00	0.00	0.00	0.945801	0.678223	1.380859	69.860001	-95.199997	56.349998	8.00	0.000000	0.000000		
3.38	5.50	6.00	10.25	11.25	5.50	9.25	0.50	6.50	1.75	2.75	3.50	3.50	5.50	1.25	1.00	3.75	-0.129883	0.175293	1.006348	4.130000	9.170000	-1.190000	761.00	-0.098981	-0.139053	0.00	0.00	0.00	0.00	0.00	0.00	0.00	0.00	0.25	0.50	0.00	0.00	0.00	0.00	0.00	0.00	0.597168	0.355957	0.946289	8.680000	-136.500000	107.940002	8.00	0.000000	0.000000		
3.39	5.00	5.75	9.25	10.75	5.25	9.00	0.50	6.25	2.25	2.50	3.75	3.50	5.75	1.25	1.00	3.75	-0.149902	0.160645	1.017578	3.430000	11.340000	-1.750000	739.00	-0.089119	-0.140279	0.00	0.00	0.00	0.00	0.00	0.00	0.00	0.00	0.25	0.50	0.00	0.00	0.00	0.00	0.00	0.00	0.421875	0.398438	0.816406	-32.410000	-138.389999	136.289993	8.00	0.000000	0.000000		
3.40	4.75	5.25	8.75	9.50	5.00	8.50	0.50	5.75	2.25	2.50	3.50	3.50	5.50	1.25	1.25	3.75	-0.167969	0.162598	1.004883	3.430000	14.700000	-2.100000	698.00	-0.081512	-0.137365	0.00	0.00	0.00	0.00	0.00	0.00	0.00	0.00	0.25	0.25	0.00	0.00	0.00	0.00	0.00	0.00	0.474609	0.392090	0.598145	-43.750000	-129.220001	148.330002	5.00	0.000000	0.000000		
3.41	4.50	4.75	7.25	8.75	4.75	7.75	0.50	5.75	2.25	2.25	3.50	3.75	5.75	1.25	1.50	3.75	-0.167969	0.162598	1.004883	3.430000	14.700000	-2.100000	663.00	-0.068251	-0.143602	0.00	0.00	0.00	0.00	0.00	0.00	0.00	0.00	0.00	0.25	0.00	0.00	0.00	0.00	0.00	0.00	0.543945	0.349121	0.592773	-19.110001	-129.639999	150.850006	2.00	0.000000	0.000000		
3.42	4.00	4.50	6.25	8.75	4.25	7.25	0.25	5.50	2.25	2.25	3.75	3.75	5.75	1.25	1.50	3.75	-0.151367	0.172363	0.991699	3.290000	15.680000	-2.100000	632.00	-0.060288	-0.150456	0.00	0.00	0.00	0.00	0.00	0.00	0.00	0.00	0.00	0.25	0.00	0.00	0.00	0.00	0.00	0.00	0.429688	0.244629	0.729492	25.690001	-141.889999	148.119995	2.00	0.000000	0.000000		
3.43	3.75	4.25	5.25	7.75	3.75	6.50	0.25	5.50	2.00	2.50	3.75	3.75	5.50	1.50	1.50	4.00	-0.154297	0.168945	0.983887	3.220000	16.240000	-1.890000	595.00	-0.047332	-0.154045	0.00	0.00	0.00	0.00	0.00	0.00	0.00	0.00	0.00	0.25	0.00	0.00	0.00	0.00	0.00	0.00	0.350586	0.034668	0.849121	65.730003	-160.020004	141.330002	2.00	0.000000	0.000000		
3.44	3.50	3.75	4.75	6.75	2.75	5.75	0.25	5.25	2.00	2.75	3.75	4.00	5.50	1.25	2.00	4.00	-0.154297	0.180176	0.979492	3.010000	16.309999	-2.100000	560.00	-0.029538	-0.157037	0.00	0.00	0.00	0.00	0.00	0.00	0.00	0.00	0.00	0.25	0.00	0.00	0.00	0.00	0.00	0.00	0.333496	-0.177734	0.927246	85.959999	-181.160004	131.669998	2.00	0.000000	0.000000		
3.45	3.50	3.50	4.25	6.00	2.00	5.00	0.25	5.25	2.00	2.50	3.75	4.00	5.50	1.25	2.00	4.00	-0.154297	0.178223	0.970703	2.590000	16.309999	-2.380000	528.00	-0.020150	-0.160890	0.00	0.00	0.00	0.00	0.00	0.00	0.00	0.00	0.00	0.25	0.00	0.00	0.00	0.00	0.00	0.00	0.301270	-0.330078	1.012207	83.580002	-203.419998	120.820000	2.00	0.000000	0.000000		
3.46	3.50	3.25	3.75	5.00	1.75	4.75	0.25	5.00	2.00	2.50	4.00	4.00	5.50	1.25	1.75	4.00	-0.154785	0.175293	0.961914	1.890000	16.170000	-2.800000	502.00	-0.010408	-0.161254	0.00	0.00	0.00	0.00	0.00	0.00	0.00	0.00	0.00	0.25	0.00	0.00	0.00	0.00	0.00	0.00	0.270996	-0.371094	1.090332	68.669998	-226.029999	111.300003	2.00	0.000000	0.000000		
3.47	3.50	2.25	3.25	4.50	1.25	4.25	0.25	5.00	1.75	3.25	4.00	4.50	5.25	1.25	2.00	4.25	-0.153320	0.174805	0.971191	1.610000	15.680000	-2.940000	484.00	0.011388	-0.163783	0.00	0.00	0.00	0.00	0.00	0.00	0.00	0.00	0.00	0.00	0.00	0.00	0.00	0.00	0.00	0.00	0.229004	-0.314453	1.139160	53.270000	-248.570007	105.840004	0.00	0.000000	0.000000		
3.48	3.25	1.75	2.75	3.75	1.00	4.25	0.25	4.75	1.50	3.25	4.25	4.50	5.50	1.00	2.50	4.50	-0.152344	0.172363	0.970703	1.260000	15.260000	-3.500000	465.00	0.029755	-0.171297	0.00	0.00	0.00	0.00	0.00	0.00	0.00	0.00	0.00	0.25	0.00	0.00	0.00	0.00	0.00	0.00	0.172363	-0.262207	1.168945	46.270000	-269.570007	106.330002	2.00	0.000000	0.000000		
3.49	2.50	1.25	2.25	3.50	0.75	4.00	0.25	4.50	1.25	2.75	4.50	4.75	5.50	0.75	2.50	4.50	-0.160645	0.167969	0.959961	1.120000	15.330000	-4.130000	432.00	0.045291	-0.185342	0.00	0.00	0.00	0.00	0.00	0.00	0.00	0.00	0.00	0.25	0.00	0.00	0.00	0.00	0.00	0.00	0.077148	-0.203613	1.213867	47.529999	-287.839996	112.419998	2.00	0.000000	0.000000		
3.50	1.75	0.25	1.75	3.25	0.50	3.75	0.25	4.50	1.25	3.25	4.50	4.75	5.50	0.75	2.50	4.75	-0.158691	0.180176	0.966309	1.610000	15.540000	-4.970000	410.00	0.073905	-0.192483	0.00	0.00	0.00	0.00	0.00	0.00	0.00	0.00	0.00	0.00	0.00	0.00	0.00	0.00	0.00	0.00	-0.022949	-0.177246	1.271484	51.310001	-302.049988	122.500000	0.00	0.000000	0.000000		
3.51	1.25	0.00	1.25	3.00	0.50	2.75	0.00	4.50	1.25	3.50	4.75	5.00	5.75	1.00	3.25	5.25	-0.154297	0.182129	0.974121	2.450000	16.030001	-5.600000	403.00	0.106712	-0.198258	0.00	0.00	0.00	0.00	0.00	0.00	0.00	0.00	0.00	0.00	0.00	0.00	0.00	0.00	0.00	0.00	-0.109863	-0.160645	1.348633	53.689999	-312.480011	135.869995	0.00	0.000000	0.000000		
3.52	0.50	0.00	1.00	2.50	0.25	2.00	0.00	4.25	1.25	3.25	5.25	5.25	5.75	1.25	3.25	5.75	-0.155762	0.180176	0.986328	3.430000	17.080000	-6.370000	384.00	0.135860	-0.204030	0.00	0.00	0.00	0.00	0.00	0.00	0.00	0.00	0.00	0.00	0.00	0.00	0.00	0.00	0.00	0.00	-0.186523	-0.150879	1.434570	50.049999	-319.829987	151.270004	0.00	0.000000	0.000000		
3.53	0.00	0.00	0.75	1.50	0.25	1.75	0.00	4.25	1.25	3.50	5.25	5.75	6.00	1.25	3.25	6.50	-0.171875	0.175781	0.984375	4.690000	18.549999	-7.140000	377.00	0.162458	-0.210847	0.00	0.00	0.00	0.00	0.00	0.00	0.00	0.00	0.00	0.00	0.00	0.00	0.00	0.00	0.00	0.00	-0.320801	-0.116211	1.637695	22.680000	-328.299988	178.919998	0.00	0.000000	0.000000		
