# Measurement Wed, 01 Mar 2023 - 21:25:00.740 (01:00.076) SN8508 SN8509 Size 4, normal
# No Name, No Comment, No tags
# time	left pressure 1[N/cm²]	left pressure 2[N/cm²]	left pressure 3[N/cm²]	left pressure 4[N/cm²]	left pressure 5[N/cm²]	left pressure 6[N/cm²]	left pressure 7[N/cm²]	left pressure 8[N/cm²]	left pressure 9[N/cm²]	left pressure 10[N/cm²]	left pressure 11[N/cm²]	left pressure 12[N/cm²]	left pressure 13[N/cm²]	left pressure 14[N/cm²]	left pressure 15[N/cm²]	left pressure 16[N/cm²]	left acceleration X[g]	left acceleration Y[g]	left acceleration Z[g]	left angular X[dps]	left angular Y[dps]	left angular Z[dps]	left total force[N]	left center of pressure X[-0.5...+0.5]	left center of pressure Y[-0.5...+0.5]	right pressure 1[N/cm²]	right pressure 2[N/cm²]	right pressure 3[N/cm²]	right pressure 4[N/cm²]	right pressure 5[N/cm²]	right pressure 6[N/cm²]	right pressure 7[N/cm²]	right pressure 8[N/cm²]	right pressure 9[N/cm²]	right pressure 10[N/cm²]	right pressure 11[N/cm²]	right pressure 12[N/cm²]	right pressure 13[N/cm²]	right pressure 14[N/cm²]	right pressure 15[N/cm²]	right pressure 16[N/cm²]	right acceleration X[g]	right acceleration Y[g]	right acceleration Z[g]	right angular X[dps]	right angular Y[dps]	right angular Z[dps]	right total force[N]	right center of pressure X[-0.5...+0.5]	right center of pressure Y[-0.5...+0.5]
0.00	3.50	3.75	3.50	5.50	1.75	2.75	0.25	1.00	2.50	1.25	0.50	0.75	0.75	1.75	0.00	0.75	-0.161133	0.119629	0.973633	-1.400000	2.170000	0.630000	295.00	-0.125346	-0.057863																									
0.01	3.50	3.75	3.75	5.50	1.75	2.75	0.25	1.00	2.50	1.00	0.50	0.50	0.75	1.75	0.00	0.75	-0.165039	0.119629	0.986816	-1.540000	2.100000	0.630000	293.00	-0.132288	-0.055610	0.00	0.00	0.25	1.75	0.00	1.00	0.00	2.25	0.75	1.00	1.50	2.50	2.75	0.50	0.50	1.75	-0.166016	0.149414	0.989746	-1.820000	-3.220000	3.780000	158.00	0.099321	-0.234406
0.02	3.50	3.75	3.75	5.50	1.50	2.75	0.25	0.75	2.50	1.00	0.75	0.50	1.00	1.50	0.50	0.50	-0.161133	0.115723	0.980957	-1.330000	2.030000	0.700000	293.00	-0.125627	-0.056773	0.00	0.00	0.25	1.50	0.25	1.25	0.00	2.50	0.75	1.00	1.50	2.50	2.75	0.50	0.50	1.75	-0.172852	0.147949	0.989746	-1.750000	-3.220000	3.780000	164.00	0.095615	-0.233944
0.03	3.50	3.75	3.75	5.50	1.50	3.00	0.25	0.75	2.25	1.25	0.75	0.50	1.00	2.25	0.50	0.50	-0.157715	0.117676	0.979004	-1.540000	2.310000	0.630000	301.00	-0.116267	-0.056335	0.00	0.00	0.25	1.25	0.50	1.25	0.00	2.50	0.75	1.00	1.50	2.50	3.00	0.50	0.50	1.75	-0.176270	0.140137	0.986328	-1.820000	-3.220000	3.850000	166.00	0.098958	-0.232350
0.04	3.50	3.75	3.75	5.00	1.75	3.00	0.25	1.00	2.25	1.25	0.75	0.75	0.75	2.25	0.50	0.75	-0.163574	0.111816	0.975586	-1.540000	2.170000	0.560000	303.00	-0.109651	-0.056716	0.00	0.00	0.25	1.00	0.50	1.00	0.00	2.25	0.75	1.00	1.75	2.50	3.00	0.25	0.50	1.75	-0.166992	0.149414	0.986328	-1.820000	-3.220000	3.850000	158.00	0.109556	-0.231621
0.05	3.50	3.75	3.75	5.00	1.50	3.00	0.25	1.00	2.50	1.00	1.00	0.50	0.75	1.75	0.50	0.50	-0.160156	0.119629	0.983887	-1.470000	2.030000	0.560000	296.00	-0.117377	-0.055880	0.00	0.00	0.50	1.00	0.50	0.75	0.00	2.25	0.75	1.00	1.75	2.50	3.00	0.25	0.50	1.75	-0.173828	0.150879	0.984375	-1.820000	-3.290000	3.920000	158.00	0.107614	-0.225779
0.06	3.50	4.00	3.75	5.50	1.75	2.75	0.25	0.75	2.50	1.00	0.75	0.50	0.75	1.75	0.50	0.50	-0.159180	0.112793	0.981445	-1.260000	2.030000	0.630000	298.00	-0.126128	-0.052298	0.00	0.00	0.25	1.00	0.50	0.50	0.00	2.50	1.00	1.00	1.75	2.50	2.75	0.50	0.50	1.75	-0.174316	0.151367	0.987793	-1.890000	-3.220000	3.780000	159.00	0.120801	-0.216418
0.07	3.50	4.00	3.75	5.50	1.75	2.75	0.25	1.25	2.50	1.00	0.75	0.75	0.75	2.00	0.50	0.50	-0.163574	0.114258	0.983887	-1.470000	1.890000	0.630000	309.00	-0.117544	-0.060388	0.00	0.00	0.25	1.00	0.25	1.00	0.00	2.50	1.00	1.00	1.75	2.50	3.25	0.50	0.50	1.75	-0.178711	0.147949	0.989258	-1.960000	-3.150000	3.780000	166.00	0.117507	-0.228230
0.08	3.50	4.00	3.75	6.00	1.75	3.00	0.25	1.25	2.75	1.25	1.00	0.75	0.75	2.00	0.50	0.50	-0.163086	0.117676	0.982910	-1.330000	1.960000	0.630000	324.00	-0.111825	-0.060972	0.00	0.00	0.25	1.00	0.50	1.00	0.00	2.25	0.75	1.00	1.50	2.50	3.25	0.50	0.50	1.75	-0.176270	0.145508	0.985840	-1.820000	-3.010000	3.780000	159.00	0.112277	-0.231226
0.09	3.50	4.00	4.00	5.50	1.75	3.00	0.25	1.00	2.50	1.00	0.75	0.75	0.75	1.75	0.50	0.50	-0.166992	0.121094	0.982422	-1.260000	1.960000	0.490000	308.00	-0.123591	-0.058635	0.00	0.00	0.25	1.00	0.50	0.75	0.00	2.25	0.75	1.00	1.75	2.50	3.00	0.50	0.50	1.75	-0.175781	0.146484	0.988770	-1.820000	-2.940000	3.780000	157.00	0.117464	-0.225887
0.10	3.50	4.00	4.00	5.50	1.75	3.00	0.25	1.00	2.50	1.00	0.50	0.50	0.75	2.00	0.50	0.50	-0.165527	0.112305	0.977051	-1.260000	1.890000	0.490000	306.00	-0.125526	-0.054805	0.00	0.00	0.00	1.00	0.50	0.50	0.00	2.25	0.75	1.00	1.75	2.50	3.00	0.50	0.50	1.75	-0.176270	0.146973	0.986328	-1.890000	-2.940000	3.850000	152.00	0.128299	-0.230407
0.11	3.50	3.75	3.75	5.50	1.75	2.75	0.25	1.25	2.75	1.00	0.50	0.50	0.75	2.00	0.50	0.50	-0.163574	0.115234	0.986328	-1.400000	1.750000	0.630000	305.00	-0.117088	-0.054075	0.00	0.00	0.25	1.00	0.50	0.75	0.00	2.50	1.00	1.25	1.75	2.50	3.25	0.50	0.50	1.75	-0.173340	0.150391	0.984863	-2.100000	-3.010000	3.780000	168.00	0.119616	-0.219111
0.12	3.50	3.75	3.75	5.50	1.75	2.75	0.25	1.25	2.75	1.00	0.75	0.50	0.75	1.75	0.25	0.50	-0.166992	0.117676	0.981934	-1.400000	1.750000	0.560000	303.00	-0.121971	-0.055833	0.00	0.00	0.00	1.00	0.50	0.50	0.00	2.50	1.00	1.00	1.75	2.50	3.25	0.50	0.50	1.75	-0.171387	0.143066	0.987793	-2.100000	-2.940000	3.780000	161.00	0.128156	-0.227368
0.13	3.50	3.75	3.75	5.50	1.75	2.75	0.25	1.00	2.75	1.00	0.50	0.50	0.75	2.00	0.25	0.50	-0.166016	0.115723	0.979492	-1.400000	1.750000	0.560000	299.00	-0.122541	-0.049922	0.00	0.00	0.00	0.75	0.50	0.50	0.00	2.25	1.00	1.00	1.50	2.50	3.00	0.50	0.50	1.75	-0.175781	0.145020	0.982422	-2.100000	-2.940000	3.570000	150.00	0.136231	-0.222269
0.14	3.75	3.75	3.75	5.50	1.75	2.25	0.25	1.25	2.75	1.00	0.50	0.75	0.75	2.25	0.50	0.50	-0.163086	0.119629	0.983398	-1.470000	1.890000	0.490000	307.00	-0.112792	-0.049693	0.00	0.00	0.25	0.50	0.50	0.50	0.00	2.25	1.00	1.00	1.75	2.50	3.00	0.50	0.50	1.75	-0.169922	0.147949	0.988281	-2.170000	-2.940000	3.500000	153.00	0.137879	-0.215350
0.15	3.75	3.75	4.00	5.50	1.75	4.00	0.25	1.25	2.75	1.00	0.75	0.50	0.75	2.00	0.50	0.50	-0.157227	0.117188	0.981934	-1.540000	1.960000	0.490000	325.00	-0.119158	-0.060599	0.00	0.00	0.25	0.75	0.25	0.25	0.00	2.50	1.00	1.25	1.75	2.50	3.00	0.50	0.50	1.75	-0.169922	0.147949	0.988281	-2.170000	-2.940000	3.500000	156.00	0.138120	-0.218713
0.16	3.50	3.75	3.75	5.50	1.75	4.00	0.25	1.25	2.50	1.00	1.00	0.75	0.75	2.00	0.50	0.50	-0.163086	0.110840	0.983398	-1.260000	1.820000	0.630000	322.00	-0.114372	-0.068328	0.00	0.00	0.00	0.75	0.25	0.25	0.00	2.50	1.25	1.25	1.75	2.50	3.00	0.50	0.50	1.75	-0.172852	0.145508	0.995117	-2.170000	-3.220000	3.570000	157.00	0.146965	-0.214310
0.17	3.50	3.75	3.75	5.50	1.75	3.00	0.25	1.00	2.50	1.00	0.75	0.75	0.75	2.00	0.50	0.50	-0.158691	0.118164	0.985840	-1.260000	1.890000	0.630000	306.00	-0.116965	-0.057621	0.00	0.00	0.25	0.75	0.25	0.50	0.00	2.25	1.00	1.50	2.00	2.50	2.75	0.50	0.50	1.75	-0.178223	0.139160	0.985840	-1.890000	-3.220000	3.640000	158.00	0.139333	-0.206870
0.18	3.50	4.00	3.75	5.50	1.50	4.00	0.25	1.00	2.25	1.00	0.75	0.75	0.75	1.75	0.50	0.50	-0.168457	0.121094	0.981445	-1.260000	1.960000	0.700000	310.00	-0.126992	-0.070902	0.00	0.00	0.25	0.75	0.25	1.00	0.00	2.00	1.00	1.25	1.75	2.50	2.75	0.50	0.50	1.75	-0.173828	0.143555	0.989746	-1.960000	-3.360000	3.640000	155.00	0.130458	-0.210408
0.19	3.50	3.75	3.75	5.50	1.50	4.00	0.25	1.00	2.75	1.00	0.75	0.75	0.75	1.75	0.50	0.50	-0.161133	0.117188	0.983887	-1.470000	1.960000	0.700000	314.00	-0.117750	-0.063689	0.00	0.00	0.25	0.75	0.25	0.75	0.00	2.00	1.00	1.25	1.75	2.50	2.75	0.50	0.50	1.75	-0.168945	0.144043	0.985840	-1.890000	-3.500000	3.640000	152.00	0.135081	-0.209386
0.20	3.75	3.75	3.75	5.50	1.75	3.00	0.25	1.00	2.75	1.00	0.75	0.75	1.00	2.00	0.50	0.50	-0.164551	0.115234	0.983398	-1.400000	2.100000	0.700000	313.00	-0.113736	-0.055762	0.00	0.00	0.00	0.75	0.50	1.00	0.00	2.25	1.00	1.25	2.00	2.75	3.00	0.50	0.50	1.75	-0.177246	0.149902	0.988281	-1.750000	-3.640000	3.710000	165.00	0.132678	-0.217644
0.21	3.50	3.75	3.50	5.50	1.75	4.00	0.25	1.00	2.50	1.25	0.75	0.50	0.75	2.00	0.50	0.50	-0.165527	0.116211	0.978027	-1.540000	2.170000	0.630000	313.00	-0.116667	-0.062902	0.00	0.00	0.00	0.75	0.50	1.00	0.00	2.25	1.00	1.25	2.00	2.50	3.00	0.50	0.50	1.75	-0.183105	0.147461	0.993164	-1.610000	-3.710000	3.780000	162.00	0.131569	-0.216496
0.22	3.50	3.75	3.75	5.50	1.75	4.00	0.25	1.00	2.50	1.00	0.50	0.75	0.75	1.75	0.50	0.50	-0.160645	0.117676	0.975586	-1.610000	2.170000	0.630000	311.00	-0.124049	-0.065528	0.00	0.00	0.25	0.75	0.25	1.00	0.00	2.25	1.00	1.50	1.75	3.00	3.00	0.50	0.50	1.75	-0.174316	0.148438	0.981934	-1.540000	-3.710000	3.710000	167.00	0.131746	-0.215714
0.23	4.00	3.75	3.75	5.00	1.75	4.00	0.25	1.00	2.75	1.00	0.75	0.75	0.75	1.75	0.50	0.50	-0.160645	0.112305	0.978516	-1.750000	2.170000	0.560000	316.00	-0.119389	-0.057560	0.00	0.00	0.25	0.75	0.50	1.00	0.00	2.25	1.00	1.50	1.75	3.00	3.00	0.50	0.50	1.75	-0.175781	0.141113	0.987793	-1.540000	-3.780000	3.640000	170.00	0.127947	-0.211618
0.24	4.00	3.75	3.75	5.00	1.75	3.50	0.25	1.00	2.75	1.00	0.75	0.50	1.00	1.75	0.50	0.50	-0.156738	0.116211	0.979980	-1.750000	2.100000	0.630000	311.00	-0.119556	-0.054859	0.00	0.00	0.25	0.75	0.50	1.00	0.00	2.25	1.00	1.25	1.75	3.00	2.75	0.50	0.50	1.75	-0.177246	0.148926	0.986328	-1.540000	-3.850000	3.710000	165.00	0.125824	-0.212563
0.25	3.75	3.75	3.75	5.50	2.00	2.75	0.25	1.00	2.75	1.00	0.75	0.50	1.00	1.75	0.25	0.50	-0.156738	0.116211	0.979980	-1.750000	2.100000	0.630000	306.00	-0.123518	-0.052429	0.00	0.00	0.25	0.75	0.25	1.00	0.00	2.25	1.00	1.25	1.75	3.00	2.50	0.50	0.50	1.75	-0.178711	0.143066	0.985840	-1.470000	-3.920000	3.710000	161.00	0.129196	-0.213748
0.26	3.50	3.50	4.00	5.50	1.75	2.75	0.25	1.00	2.75	1.00	1.00	0.75	1.00	1.75	0.50	0.50	-0.162109	0.117676	0.983887	-1.750000	2.170000	0.560000	309.00	-0.111096	-0.055267	0.00	0.00	0.25	0.75	0.50	1.00	0.00	2.25	1.00	1.50	1.75	3.00	3.00	0.50	0.50	1.75	-0.175781	0.141602	0.984863	-1.470000	-3.990000	3.710000	170.00	0.127947	-0.211618
0.27	3.50	3.75	4.00	5.50	1.75	3.00	0.25	1.00	2.50	1.00	0.75	0.75	0.50	1.75	0.50	0.50	-0.166016	0.119141	0.973633	-1.820000	2.310000	0.630000	304.00	-0.123485	-0.055252	0.00	0.00	0.25	0.75	0.50	0.75	0.00	2.25	1.00	1.50	1.75	3.00	3.00	0.50	0.50	1.75	-0.179199	0.146973	0.987305	-1.400000	-3.920000	3.710000	167.00	0.132113	-0.210708
0.28	3.50	3.75	3.75	5.00	2.00	3.00	0.25	1.00	2.50	1.00	0.75	0.75	0.50	1.75	0.50	0.50	-0.165039	0.114258	0.979980	-1.750000	2.240000	0.700000	299.00	-0.119539	-0.052663	0.00	0.00	0.25	1.00	0.50	0.50	0.00	2.00	1.00	1.50	1.75	3.00	3.25	0.50	0.50	1.75	-0.182617	0.143555	0.989258	-1.610000	-3.990000	3.710000	166.00	0.133511	-0.209212
0.29	3.50	3.75	3.75	5.00	2.00	2.75	0.25	1.00	2.75	1.00	0.75	0.50	0.75	1.75	0.50	0.50	-0.169922	0.116699	0.976562	-1.750000	2.240000	0.700000	299.00	-0.116229	-0.048329	0.00	0.00	0.25	1.50	0.50	0.75	0.00	2.00	1.00	1.50	1.75	2.75	3.25	0.50	0.50	1.75	-0.177734	0.144531	0.990234	-1.540000	-4.060000	3.710000	171.00	0.115955	-0.209389
0.30	3.50	3.75	3.75	5.00	2.00	3.00	0.25	1.00	2.75	1.00	0.75	0.50	0.75	1.75	0.50	0.50	-0.160645	0.118164	0.983887	-1.820000	2.170000	0.630000	302.00	-0.116525	-0.050180	0.00	0.00	0.50	1.00	0.50	1.00	0.00	2.25	1.00	1.50	1.75	2.50	3.00	0.50	0.50	1.75	-0.173828	0.146484	0.988770	-1.540000	-3.990000	3.640000	170.00	0.113654	-0.204930
0.31	3.50	3.75	3.75	5.00	1.75	3.00	0.25	1.00	2.75	1.00	0.75	0.75	0.75	1.75	0.25	0.50	-0.163086	0.116699	0.980469	-1.820000	2.240000	0.630000	299.00	-0.118058	-0.052836	0.00	0.00	0.25	1.00	0.50	1.00	0.00	2.25	1.00	1.50	1.75	2.75	3.00	0.50	0.50	1.75	-0.176758	0.142090	0.986328	-1.680000	-4.060000	3.640000	170.00	0.120686	-0.210631
0.32	3.50	3.50	3.75	5.00	1.75	2.75	0.25	1.00	2.75	1.25	0.75	0.50	0.75	1.75	0.25	0.50	-0.160156	0.118164	0.986328	-1.540000	2.030000	0.770000	295.00	-0.115418	-0.047240	0.00	0.00	0.00	1.00	0.50	0.75	0.00	2.25	1.00	1.50	2.00	2.75	3.00	0.50	0.50	1.75	-0.176758	0.145508	0.987793	-1.610000	-3.920000	3.570000	167.00	0.132149	-0.212928
0.33	3.50	3.75	3.50	5.00	1.75	2.75	0.25	1.00	2.50	1.00	0.75	0.50	0.75	1.75	0.25	0.75	-0.162598	0.119141	0.985840	-1.400000	1.890000	0.840000	290.00	-0.120987	-0.054677	0.00	0.00	0.25	0.75	0.50	1.00	0.00	2.00	1.00	1.50	2.25	2.75	3.00	0.50	0.50	1.75	-0.178223	0.139160	0.987305	-1.610000	-3.920000	3.710000	169.00	0.132483	-0.203997
0.34	3.50	3.75	3.75	5.50	1.75	3.00	0.25	1.00	2.50	1.00	0.75	0.50	0.75	1.75	0.25	0.75	-0.169922	0.115723	0.982422	-1.610000	2.030000	0.700000	300.00	-0.125257	-0.058105	0.00	0.00	0.25	0.75	0.50	1.00	0.00	2.00	1.00	1.50	2.00	2.50	3.25	0.50	0.75	1.75	-0.181152	0.141602	0.985840	-1.540000	-3.850000	3.710000	168.00	0.134469	-0.205254
0.35	3.50	3.75	3.50	5.00	1.75	3.00	0.25	0.75	2.25	1.00	0.75	0.75	0.75	1.75	0.25	0.50	-0.158203	0.118164	0.980957	-1.540000	2.030000	0.700000	287.00	-0.125826	-0.056813	0.00	0.00	0.00	1.00	0.50	1.00	0.00	2.00	1.00	1.50	1.75	2.75	3.25	0.50	0.50	1.75	-0.170410	0.148926	0.993652	-1.610000	-3.780000	3.710000	166.00	0.130008	-0.214470
0.36	3.50	3.75	3.50	5.00	1.75	3.00	0.25	0.75	2.25	1.00	0.75	0.50	0.75	1.75	0.50	0.50	-0.161621	0.114746	0.979004	-1.820000	2.030000	0.700000	287.00	-0.124153	-0.055020	0.00	0.00	0.25	0.50	0.50	0.75	0.00	2.00	1.00	1.25	2.00	2.75	3.00	0.50	0.50	1.75	-0.179199	0.148926	0.985352	-1.680000	-3.850000	3.710000	159.00	0.140541	-0.207923
0.37	3.50	3.75	3.50	5.50	1.75	2.75	0.25	1.00	2.25	1.00	0.75	0.50	0.75	1.75	0.50	0.50	-0.157715	0.114746	0.979004	-1.680000	2.100000	0.630000	293.00	-0.125384	-0.060068	0.00	0.00	0.25	0.75	0.50	0.75	0.00	2.00	1.00	1.50	2.25	2.75	3.00	0.50	0.50	1.75	-0.175781	0.145020	0.984375	-1.610000	-4.130000	3.710000	166.00	0.136744	-0.202966
0.38	3.50	3.75	3.50	5.00	1.75	2.50	0.25	1.00	2.50	1.00	0.75	0.50	0.75	1.75	0.50	0.50	-0.163086	0.119629	0.979004	-1.680000	2.100000	0.630000	289.00	-0.118381	-0.051908	0.00	0.00	0.50	0.50	0.50	0.50	0.00	2.00	1.00	1.50	2.00	2.75	3.00	0.50	0.50	1.75	-0.175781	0.145020	0.984375	-1.610000	-4.130000	3.710000	161.00	0.140103	-0.198214
0.39	3.50	3.75	3.50	5.00	1.75	2.50	0.25	1.00	2.75	1.00	0.75	0.50	0.50	1.75	0.50	0.50	-0.165039	0.117188	0.978516	-1.610000	2.240000	0.630000	290.00	-0.116493	-0.045721	0.00	0.00	0.25	0.50	0.50	0.50	0.00	2.00	1.00	1.25	1.75	2.75	3.00	0.50	0.50	1.75	-0.174805	0.142578	0.988770	-1.680000	-4.130000	3.710000	154.00	0.143941	-0.208303
0.40	3.50	3.75	3.50	4.75	1.75	2.25	0.25	0.75	2.75	1.00	0.75	0.50	0.50	1.75	0.50	0.50	-0.165527	0.117676	0.979004	-1.680000	2.240000	0.700000	281.00	-0.115939	-0.037840	0.00	0.00	0.25	1.00	0.50	0.75	0.00	2.50	1.00	1.75	1.75	2.75	3.00	0.50	0.50	1.75	-0.174316	0.145508	0.982422	-1.610000	-4.200000	3.640000	173.00	0.123583	-0.209605
0.41	3.50	3.50	3.50	5.00	1.75	2.00	0.25	1.00	2.50	1.00	0.75	0.50	0.50	1.75	0.25	0.50	-0.169922	0.118164	0.984375	-1.610000	2.170000	0.700000	277.00	-0.122158	-0.043868	0.00	0.00	0.25	1.00	0.50	1.00	0.00	2.50	1.00	1.75	1.75	2.50	3.25	0.50	0.50	1.75	-0.172852	0.150391	0.991211	-1.540000	-4.130000	3.710000	175.00	0.119040	-0.212197
0.42	3.50	3.75	3.50	5.00	1.75	2.00	0.25	1.00	2.75	1.00	0.75	0.50	0.75	1.75	0.50	0.50	-0.164062	0.116211	0.977051	-1.610000	2.170000	0.630000	287.00	-0.113885	-0.044672	0.00	0.00	0.00	0.75	0.50	1.00	0.00	2.25	1.00	1.75	1.75	2.50	3.25	0.50	0.50	1.75	-0.171875	0.140625	0.986816	-1.470000	-4.130000	3.710000	167.00	0.133779	-0.212877
0.43	3.50	3.50	3.50	4.75	1.75	2.00	0.25	1.00	2.75	1.00	0.75	0.50	0.75	2.00	0.50	0.50	-0.165527	0.118652	0.984375	-1.610000	2.100000	0.700000	284.00	-0.106493	-0.040654	0.00	0.00	0.25	0.50	0.50	0.75	0.00	2.25	1.00	1.50	1.75	2.75	3.00	0.50	0.50	1.75	-0.173828	0.148438	0.983398	-1.470000	-4.200000	3.640000	162.00	0.137476	-0.209236
0.44	3.50	3.50	3.50	5.00	1.75	2.75	0.25	1.00	2.75	1.00	0.50	0.50	0.75	2.00	0.50	0.50	-0.162598	0.112305	0.977539	-1.540000	1.960000	0.630000	292.00	-0.111947	-0.047561	0.00	0.00	0.25	0.50	0.50	0.50	0.00	2.25	1.00	1.50	1.75	2.75	2.75	0.50	0.50	1.75	-0.176758	0.142578	0.992676	-1.400000	-4.060000	3.570000	158.00	0.141632	-0.205044
0.45	3.50	3.75	3.50	5.00	1.75	2.75	0.25	0.75	2.75	1.25	0.50	0.50	0.75	1.75	0.50	0.50	-0.170898	0.121094	0.977051	-1.540000	1.890000	0.630000	291.00	-0.115982	-0.044905	0.00	0.00	0.25	1.00	0.50	1.00	0.00	2.25	1.00	1.25	1.75	3.00	2.75	0.50	0.50	1.75	-0.176270	0.149902	0.985840	-1.470000	-4.060000	3.570000	168.00	0.119652	-0.212748
0.46	3.50	3.75	3.50	4.75	1.75	2.75	0.25	0.75	2.50	1.50	0.75	0.75	0.75	1.75	0.50	0.50	-0.160645	0.115723	0.985352	-1.680000	1.750000	0.770000	293.00	-0.109947	-0.048393	0.00	0.00	0.25	1.00	0.50	1.00	0.00	2.00	1.00	1.75	1.75	3.00	3.00	0.50	0.50	1.75	-0.175781	0.144043	0.988770	-1.470000	-3.990000	3.710000	171.00	0.126272	-0.204328
0.47	3.50	3.75	3.50	4.75	1.50	2.75	0.25	0.75	2.50	1.00	0.75	0.50	0.75	1.75	0.50	0.50	-0.165527	0.119629	0.987793	-1.610000	1.890000	0.630000	283.00	-0.118422	-0.049146	0.00	0.00	0.25	0.75	0.50	0.50	0.00	2.00	1.00	1.50	1.75	3.00	3.00	0.50	0.50	2.00	-0.174316	0.147461	0.990234	-1.610000	-4.060000	3.570000	163.00	0.141295	-0.206670
0.48	3.50	3.75	3.50	4.75	1.50	2.25	0.25	1.00	2.50	0.75	0.50	0.50	0.75	1.75	0.50	0.50	-0.164551	0.113281	0.977051	-1.680000	1.820000	0.630000	277.00	-0.122547	-0.049822	0.00	0.00	0.25	0.75	0.25	0.50	0.00	2.00	1.00	1.75	1.75	3.00	3.00	0.50	0.50	2.00	-0.178711	0.145020	0.986328	-1.610000	-3.850000	3.570000	162.00	0.146866	-0.206852
0.49	3.50	3.50	3.50	4.50	1.50	2.00	0.25	1.00	2.25	0.75	0.50	0.50	0.50	2.00	0.25	0.50	-0.163574	0.120605	0.978516	-1.610000	1.890000	0.630000	264.00	-0.125745	-0.043716	0.00	0.00	0.25	0.75	0.50	1.00	0.00	2.25	1.25	1.75	1.75	2.75	3.00	0.50	0.50	2.00	-0.178223	0.143066	0.988281	-1.470000	-3.710000	3.570000	174.00	0.132254	-0.199067
0.50	3.50	3.50	3.50	4.50	1.50	2.25	0.25	1.00	2.50	1.00	0.75	0.50	0.50	1.75	0.25	0.50	-0.167480	0.109375	0.985840	-1.540000	1.820000	0.770000	272.00	-0.119358	-0.043596	0.00	0.00	0.00	1.00	0.50	1.50	0.00	2.25	1.00	1.75	1.75	2.75	2.75	0.50	0.50	2.00	-0.175293	0.147461	0.987305	-1.540000	-3.710000	3.640000	174.00	0.121341	-0.210918
0.51	3.50	3.50	3.75	4.75	1.25	2.50	0.25	1.00	2.50	1.00	0.50	0.50	0.75	1.75	0.25	0.50	-0.163086	0.118164	0.983887	-1.470000	1.750000	0.840000	277.00	-0.123375	-0.049409	0.00	0.00	0.25	0.75	0.50	1.00	0.00	2.00	1.00	1.75	1.75	3.00	3.00	0.50	0.50	2.00	-0.173340	0.142578	0.983887	-1.540000	-3.780000	3.640000	170.00	0.134092	-0.204823
0.52	3.50	3.50	4.00	4.75	1.25	2.75	0.25	1.00	2.50	1.00	0.50	0.50	0.75	2.00	0.50	0.50	-0.162109	0.118652	0.979004	-1.820000	1.890000	0.700000	286.00	-0.116763	-0.048842	0.00	0.00	0.25	0.75	0.50	0.75	0.00	2.00	1.00	1.50	2.00	2.75	3.00	0.50	0.50	1.75	-0.169922	0.144531	0.989746	-1.540000	-3.710000	3.780000	164.00	0.135440	-0.204238
0.53	3.50	3.75	4.00	5.50	1.50	2.75	0.25	1.00	2.50	1.00	0.50	0.50	0.75	2.25	0.25	0.50	-0.161133	0.120605	0.981934	-1.960000	2.100000	0.560000	298.00	-0.124041	-0.051433	0.00	0.00	0.50	1.00	0.50	1.00	0.00	2.50	1.00	1.50	1.75	2.75	3.00	0.50	0.50	1.75	-0.178711	0.143066	0.987793	-1.470000	-3.780000	3.710000	176.00	0.112453	-0.209859
0.54	3.50	3.75	3.75	5.50	1.50	2.25	0.25	1.00	2.50	1.00	0.50	0.50	0.75	2.25	0.50	0.75	-0.165039	0.113281	0.983887	-1.540000	1.960000	0.700000	294.00	-0.115919	-0.050273	0.00	0.00	0.50	0.75	0.50	0.75	0.00	2.50	1.00	1.50	1.75	3.00	3.00	0.50	0.50	1.75	-0.174805	0.141602	0.989746	-1.540000	-3.920000	3.710000	173.00	0.123361	-0.209921
0.55	3.50	3.75	3.75	5.50	1.25	4.00	0.50	1.00	2.50	1.00	0.50	0.75	0.75	2.25	0.50	0.75	-0.161133	0.114746	0.984863	-1.540000	1.890000	0.700000	315.00	-0.113194	-0.062109	0.00	0.00	0.25	0.75	0.50	0.50	0.00	2.50	1.00	1.50	2.00	3.00	2.75	0.50	0.50	1.75	-0.176758	0.143066	0.987793	-1.540000	-3.780000	3.640000	169.00	0.134219	-0.209211
0.56	3.50	3.75	3.75	5.50	1.75	4.00	0.50	1.00	2.75	1.00	0.75	0.75	0.50	2.00	0.25	0.50	-0.166016	0.118652	0.981445	-1.680000	1.890000	0.700000	318.00	-0.118170	-0.055221	0.00	0.00	0.25	0.50	0.50	0.50	0.00	2.25	1.00	1.50	2.25	2.75	2.75	0.50	0.75	1.75	-0.176758	0.142578	0.989746	-1.470000	-3.710000	3.570000	165.00	0.147970	-0.200666
0.57	3.50	3.75	3.50	5.00	2.00	4.00	0.25	1.00	2.75	0.75	0.75	0.75	0.75	2.00	0.50	0.50	-0.163574	0.121094	0.982422	-1.610000	1.890000	0.630000	311.00	-0.113333	-0.059789	0.00	0.00	0.25	0.25	0.50	0.25	0.00	2.00	1.00	1.25	2.25	2.75	2.75	0.25	0.75	1.75	-0.180176	0.148926	0.992188	-1.610000	-3.920000	3.780000	152.00	0.158858	-0.203702
0.58	3.50	4.00	3.50	4.75	2.00	3.00	0.25	1.00	2.75	0.75	0.75	0.50	0.75	2.00	0.50	0.50	-0.162598	0.116211	0.981934	-1.680000	2.030000	0.700000	299.00	-0.115313	-0.050141	0.00	0.00	0.00	0.25	0.50	0.75	0.00	2.25	1.00	1.50	2.00	2.75	2.75	0.25	0.50	1.75	-0.172363	0.147461	0.988281	-1.610000	-3.850000	3.710000	156.00	0.148419	-0.214057
0.59	3.50	3.75	3.50	4.50	1.75	2.75	0.25	0.75	2.75	1.00	0.75	0.75	0.75	2.00	0.50	0.50	-0.160645	0.116699	0.985352	-1.750000	2.030000	0.630000	290.00	-0.106863	-0.043859	0.00	0.00	0.25	0.75	0.50	1.00	0.00	2.25	1.00	1.50	1.75	2.75	2.75	0.50	0.50	2.00	-0.174805	0.145020	0.991211	-1.680000	-3.850000	3.710000	167.00	0.128032	-0.208179
0.60	3.50	3.75	3.75	4.75	1.75	2.75	0.25	1.00	2.75	1.00	0.75	0.50	0.75	1.75	0.25	0.50	-0.167480	0.119141	0.980957	-1.610000	2.030000	0.630000	292.00	-0.119010	-0.047476	0.00	0.00	0.25	0.75	0.50	0.50	0.00	2.25	1.00	1.50	2.00	2.50	2.75	0.50	0.50	2.00	-0.175781	0.146973	0.986816	-1.610000	-3.710000	3.710000	162.00	0.136925	-0.203525
0.61	3.50	3.75	3.75	4.75	1.75	2.25	0.25	1.00	3.00	1.25	0.50	0.50	0.75	1.75	0.50	0.50	-0.168457	0.119141	0.980957	-1.610000	2.030000	0.630000	292.00	-0.110155	-0.039166	0.00	0.00	0.25	0.75	0.25	0.50	0.00	2.25	1.00	1.25	2.00	2.50	2.75	0.50	0.50	2.00	-0.177246	0.146484	0.987305	-1.610000	-3.640000	3.640000	157.00	0.139550	-0.211824
0.62	3.50	3.75	3.75	4.75	1.50	2.50	0.25	0.75	3.00	1.00	0.50	0.50	0.75	1.75	0.50	0.50	-0.167480	0.115723	0.982910	-1.680000	2.030000	0.700000	287.00	-0.114487	-0.038654	0.00	0.00	0.00	0.75	0.50	1.00	0.00	2.25	1.00	1.75	1.75	2.50	2.75	0.50	0.50	1.75	-0.175293	0.142578	0.996094	-1.540000	-3.570000	3.710000	163.00	0.132897	-0.206779
0.63	3.50	3.75	4.00	4.75	1.75	2.50	0.25	0.75	2.75	1.00	1.00	0.50	0.75	2.00	0.50	0.50	-0.163574	0.115234	0.984375	-1.680000	2.030000	0.700000	295.00	-0.110637	-0.039691	0.00	0.00	0.25	1.00	0.50	0.75	0.00	2.25	1.00	1.75	1.75	3.00	3.00	0.50	0.50	1.75	-0.178711	0.143555	0.989258	-1.470000	-3.570000	3.640000	172.00	0.127499	-0.207123
0.64	3.50	3.75	3.75	4.50	1.75	2.25	0.25	0.75	2.75	1.00	1.00	0.50	0.75	2.00	0.50	0.50	-0.161133	0.114746	0.978027	-1.610000	2.030000	0.770000	288.00	-0.107362	-0.037205	0.00	0.00	0.25	1.00	0.50	0.75	0.00	2.25	1.00	1.50	1.75	3.00	3.00	0.50	0.50	2.00	-0.172363	0.145508	0.990234	-1.610000	-3.570000	3.570000	171.00	0.127621	-0.211663
0.65	3.50	3.75	3.50	4.75	1.50	2.25	0.25	0.75	2.75	1.25	0.75	0.50	0.75	2.00	0.50	0.50	-0.163574	0.117188	0.980469	-1.610000	2.030000	0.770000	285.00	-0.107270	-0.039352	0.00	0.00	0.00	0.75	0.50	0.50	0.00	2.25	1.00	1.50	1.75	2.75	2.75	0.50	0.50	2.00	-0.172852	0.144043	0.990723	-1.540000	-3.710000	3.640000	159.00	0.143112	-0.210929
0.66	3.50	3.75	3.50	5.00	1.50	2.00	0.25	1.00	2.75	1.00	0.50	0.50	0.75	1.75	0.50	0.75	-0.167480	0.117188	0.984375	-1.400000	1.890000	0.910000	283.00	-0.114566	-0.046195	0.00	0.00	0.25	0.50	0.50	0.25	0.00	2.25	1.00	1.50	1.75	2.75	2.75	0.50	0.50	2.00	-0.172852	0.144043	0.990723	-1.540000	-3.710000	3.640000	157.00	0.148035	-0.204828
0.67	3.50	3.75	3.75	4.75	1.75	2.00	0.25	1.00	2.75	1.00	0.75	0.50	0.75	2.00	0.50	0.75	-0.164062	0.119141	0.980957	-1.540000	2.030000	0.840000	290.00	-0.108133	-0.041596	0.00	0.00	0.50	0.75	0.50	0.50	0.00	2.00	1.00	1.75	1.75	2.75	2.75	0.50	0.50	2.00	-0.170898	0.145508	0.982910	-1.680000	-3.710000	3.780000	163.00	0.135050	-0.193669
0.68	3.50	3.75	3.75	4.50	1.75	2.00	0.25	0.75	3.00	1.00	0.75	0.50	0.75	2.25	0.50	0.50	-0.158691	0.116211	0.972168	-1.750000	2.170000	0.630000	288.00	-0.102437	-0.029817	0.00	0.00	0.25	0.75	0.50	0.50	0.00	2.25	1.00	1.75	1.75	2.75	2.75	0.50	0.50	1.75	-0.172363	0.146484	0.989746	-1.610000	-3.570000	3.780000	163.00	0.136466	-0.201422
0.69	3.50	3.75	3.50	4.50	1.50	2.00	0.25	0.75	3.00	1.25	1.00	0.50	0.75	2.00	0.25	0.50	-0.160645	0.119141	0.978516	-1.540000	2.100000	0.700000	283.00	-0.103007	-0.032624	0.00	0.00	0.25	0.75	0.50	0.75	0.00	2.25	1.00	1.75	1.75	2.50	2.75	0.50	0.50	1.75	-0.174805	0.140625	0.987793	-1.610000	-3.640000	3.780000	163.00	0.131006	-0.201127
0.70	3.50	3.75	3.50	5.00	1.50	2.25	0.25	1.00	2.75	1.00	1.00	0.50	0.75	2.00	0.00	0.50	-0.162598	0.118652	0.979004	-1.190000	1.820000	0.840000	286.00	-0.116478	-0.046031	0.00	0.00	0.25	0.75	0.50	1.00	0.00	2.00	1.00	1.50	1.75	2.75	2.75	0.50	0.50	1.75	-0.177734	0.144043	0.991211	-1.610000	-3.570000	3.710000	162.00	0.129258	-0.203426
0.71	3.50	3.50	3.50	4.75	1.75	2.00	0.25	1.00	2.75	1.00	0.75	0.50	0.75	2.00	0.50	0.50	-0.162598	0.119629	0.975098	-1.750000	2.100000	0.630000	284.00	-0.106493	-0.040654	0.00	0.00	0.25	1.00	0.25	0.50	0.00	2.25	1.00	1.50	1.75	2.75	2.75	0.50	0.50	1.75	-0.178711	0.149902	0.990723	-1.680000	-3.640000	3.710000	160.00	0.132388	-0.209834
0.72	3.50	3.75	3.50	5.50	1.75	2.75	0.25	1.00	3.00	1.00	0.75	0.50	0.75	1.75	0.50	0.50	-0.172852	0.111816	0.981445	-1.750000	2.100000	0.630000	302.00	-0.114048	-0.050138	0.00	0.00	0.25	0.75	0.50	0.25	0.00	2.25	1.00	1.50	1.75	2.75	2.75	0.50	0.50	1.75	-0.175293	0.147461	0.984863	-1.610000	-3.640000	3.710000	158.00	0.139446	-0.204291
0.73	3.50	3.75	3.75	5.50	1.75	2.75	0.25	1.00	3.00	1.00	1.00	0.50	0.75	1.75	0.50	0.50	-0.161133	0.117676	0.981445	-1.680000	1.960000	0.700000	307.00	-0.112657	-0.049492	0.00	0.00	0.25	0.75	0.50	1.00	0.00	2.25	1.00	1.75	1.75	2.75	3.00	0.50	0.50	1.75	-0.172363	0.145508	0.984375	-1.540000	-3.500000	3.640000	170.00	0.128396	-0.206575
0.74	3.50	3.75	3.75	5.00	1.75	2.50	0.25	1.00	3.00	1.25	1.00	0.50	0.75	2.25	0.50	0.50	-0.165039	0.117676	0.976562	-1.540000	1.960000	0.700000	306.00	-0.100022	-0.041022	0.00	0.00	0.25	0.75	0.50	1.00	0.00	2.25	1.00	1.75	1.75	2.50	3.25	0.50	0.50	1.75	-0.177734	0.146973	0.983398	-1.470000	-3.500000	3.640000	169.00	0.127757	-0.208320
0.75	3.50	3.75	3.75	5.00	1.50	2.25	0.25	0.75	2.75	1.25	1.00	0.75	0.50	2.25	0.50	0.50	-0.165039	0.121094	0.977539	-1.750000	2.030000	0.700000	295.00	-0.103315	-0.038244	0.00	0.00	0.25	1.00	0.50	0.50	0.00	2.00	1.00	1.50	1.75	3.00	3.00	0.50	0.50	1.75	-0.173340	0.146484	0.989258	-1.470000	-3.570000	3.570000	164.00	0.133069	-0.206138
0.76	3.50	3.75	3.75	5.00	1.25	2.00	0.25	0.75	3.50	1.00	1.00	0.75	0.75	1.75	0.50	0.50	-0.162109	0.116211	0.979492	-1.820000	2.100000	0.700000	295.00	-0.099524	-0.034140	0.00	0.00	0.00	0.75	0.50	0.25	0.00	2.00	1.00	1.25	1.75	3.00	2.75	0.50	0.50	2.00	-0.172363	0.145020	0.984375	-1.540000	-3.570000	3.640000	153.00	0.150931	-0.211406
0.77	3.50	3.75	3.75	4.75	1.50	2.00	0.25	0.75	3.50	1.00	1.00	1.00	0.75	1.75	0.50	0.50	-0.162109	0.116211	0.979492	-1.820000	2.100000	0.700000	297.00	-0.095653	-0.033848	0.00	0.00	0.25	0.75	0.50	0.25	0.00	2.00	1.00	1.50	1.75	3.00	2.75	0.50	0.50	2.00	-0.173340	0.142578	0.986328	-1.470000	-3.570000	3.710000	158.00	0.145554	-0.202412
0.78	3.50	3.75	3.75	4.75	1.50	2.75	0.25	1.00	3.00	1.00	1.00	0.75	0.75	1.75	0.50	0.50	-0.160645	0.116211	0.982422	-1.820000	2.030000	0.560000	300.00	-0.105575	-0.047999	0.00	0.00	0.50	1.00	0.50	0.75	0.00	2.00	1.00	1.50	1.75	2.75	2.75	0.50	0.50	1.75	-0.174316	0.143066	0.986816	-1.540000	-3.640000	3.640000	164.00	0.121032	-0.198160
0.79	3.50	3.50	3.50	4.50	1.50	2.75	0.25	1.00	3.00	1.25	1.00	0.75	0.75	1.75	0.50	0.75	-0.164551	0.117188	0.979492	-1.960000	2.100000	0.700000	296.00	-0.095701	-0.047066	0.00	0.00	0.25	1.00	0.50	0.75	0.00	2.00	1.00	1.50	1.75	2.75	2.50	0.50	0.50	1.75	-0.182617	0.150879	0.989258	-1.470000	-3.640000	3.640000	160.00	0.126596	-0.199462
0.80	3.50	3.50	3.50	4.75	1.25	2.25	0.25	0.75	3.00	1.50	0.75	0.50	0.75	2.00	0.50	0.75	-0.166504	0.115234	0.979980	-1.960000	2.100000	0.630000	287.00	-0.096144	-0.036372	0.00	0.00	0.25	0.75	0.50	0.75	0.00	2.00	1.00	1.50	1.75	2.75	3.00	0.50	0.50	1.75	-0.174805	0.145508	0.990234	-1.470000	-3.570000	3.640000	161.00	0.134097	-0.205547
0.81	3.50	3.50	3.50	5.00	1.50	2.25	0.25	1.00	2.75	1.25	1.00	0.50	0.75	2.00	0.50	0.50	-0.165039	0.116211	0.979980	-1.890000	2.030000	0.700000	291.00	-0.102718	-0.044865	0.00	0.00	0.50	0.50	0.50	1.00	0.00	2.00	1.00	1.50	1.75	3.00	3.00	0.50	0.50	1.75	-0.176270	0.139160	0.988770	-1.470000	-3.570000	3.710000	166.00	0.131100	-0.203035
0.82	3.50	3.50	3.50	4.75	1.50	2.25	0.25	0.75	3.00	1.00	0.75	0.50	0.75	1.75	0.50	0.50	-0.163086	0.113281	0.985840	-1.960000	2.030000	0.700000	282.00	-0.107636	-0.037449	0.00	0.00	0.25	0.50	0.25	0.50	0.00	2.00	1.00	1.50	1.75	3.00	3.00	0.50	0.50	2.00	-0.174316	0.144043	0.985840	-1.470000	-3.640000	3.710000	158.00	0.152365	-0.210649
0.83	3.50	3.50	3.50	5.00	1.75	2.25	0.25	0.75	3.00	1.00	0.75	0.50	0.75	1.75	0.50	0.50	-0.165527	0.118652	0.974121	-2.100000	1.960000	0.630000	287.00	-0.109363	-0.038223	0.00	0.00	0.25	0.75	0.25	0.50	0.00	2.00	1.00	1.25	1.75	2.75	3.00	0.50	0.50	2.00	-0.180176	0.142578	0.990723	-1.400000	-3.640000	3.710000	155.00	0.143057	-0.213773
0.84	3.50	3.50	3.50	4.75	1.75	2.25	0.25	0.75	3.00	1.25	0.50	0.50	0.75	1.75	0.50	0.50	-0.161133	0.122070	0.986328	-1.960000	2.030000	0.700000	284.00	-0.107688	-0.035067	0.00	0.00	0.25	1.00	0.50	0.75	0.00	2.00	1.00	1.25	1.75	2.75	2.75	0.50	0.50	1.75	-0.170898	0.145508	0.981445	-1.470000	-3.780000	3.780000	160.00	0.125437	-0.206665
0.85	3.50	3.50	3.50	4.75	1.75	2.00	0.25	0.75	2.75	1.50	0.50	0.50	0.75	1.75	0.25	0.50	-0.161621	0.116699	0.985352	-1.960000	1.960000	0.700000	279.00	-0.112690	-0.035014	0.00	0.00	0.00	1.00	0.50	0.75	0.00	2.00	1.00	1.25	1.75	2.75	3.00	0.50	0.50	1.75	-0.172852	0.146973	0.990723	-1.540000	-3.710000	3.850000	159.00	0.132271	-0.214617
0.86	3.50	3.50	3.50	5.00	1.75	2.25	0.25	0.75	2.75	1.25	0.75	0.50	0.75	1.75	0.50	0.50	-0.165527	0.118652	0.981934	-1.890000	1.890000	0.700000	286.00	-0.110280	-0.040643	0.00	0.00	0.00	0.75	0.50	0.50	0.00	2.00	1.00	1.75	2.00	3.00	3.00	0.50	0.50	1.75	-0.173340	0.147461	0.983398	-1.540000	-3.920000	3.780000	164.00	0.148664	-0.205216
0.87	3.50	3.75	3.50	5.00	1.50	2.25	0.25	0.75	2.75	1.25	0.75	0.75	0.75	1.75	0.50	0.50	-0.167969	0.116211	0.981934	-1.820000	1.890000	0.770000	288.00	-0.109718	-0.044584	0.00	0.00	0.25	0.75	0.50	0.75	0.00	2.00	1.00	1.75	2.00	3.00	3.00	0.50	0.50	1.75	-0.176270	0.148926	0.989258	-1.470000	-3.920000	3.780000	169.00	0.137952	-0.201755
0.88	3.50	3.75	3.50	4.75	1.50	2.25	0.25	0.75	3.00	1.00	1.00	0.50	0.75	1.75	0.50	0.50	-0.166016	0.112793	0.982910	-1.470000	1.750000	0.840000	286.00	-0.107118	-0.039051	0.00	0.00	0.50	0.75	0.50	0.75	0.00	2.00	1.00	1.50	1.75	2.75	3.00	0.50	0.50	1.75	-0.173340	0.142578	0.985840	-1.330000	-4.200000	3.920000	164.00	0.127874	-0.200956
0.89	3.50	3.75	3.50	5.00	1.50	2.00	0.25	0.75	2.75	1.00	1.00	0.50	0.75	2.25	0.50	0.50	-0.164551	0.116699	0.981445	-1.330000	1.820000	0.770000	287.00	-0.105022	-0.038967	0.00	0.00	0.25	0.75	0.50	1.00	0.00	2.00	1.00	1.50	1.75	2.50	2.75	0.50	0.50	1.75	-0.169922	0.139648	0.990234	-1.190000	-4.410000	4.060000	159.00	0.128076	-0.202041
0.90	3.50	3.75	3.50	5.00	1.50	2.25	0.25	0.75	3.00	1.00	0.75	0.50	0.75	2.25	0.50	0.50	-0.162109	0.120117	0.984375	-1.610000	1.960000	0.770000	290.00	-0.104431	-0.037107	0.00	0.00	0.00	0.75	0.50	1.00	0.00	2.25	1.25	1.50	1.75	2.75	2.75	0.50	0.50	1.75	-0.171387	0.141602	0.973145	-1.540000	-4.480000	4.130000	166.00	0.134663	-0.203260
0.91	3.50	3.75	3.50	4.75	1.50	2.25	0.25	1.00	3.00	1.00	0.75	0.50	0.75	2.00	0.50	0.25	-0.162598	0.113281	0.983398	-1.610000	1.890000	0.770000	288.00	-0.107244	-0.040010	0.00	0.00	0.25	0.75	0.50	0.75	0.00	2.00	1.25	1.50	1.75	2.75	2.75	0.50	0.50	1.75	-0.166016	0.145020	0.983398	-1.540000	-4.410000	4.200000	162.00	0.135910	-0.193558
0.92	3.50	3.75	3.50	4.75	1.50	2.00	0.25	1.00	2.75	1.25	1.00	0.50	0.75	2.00	0.50	0.50	-0.161133	0.114258	0.980957	-1.610000	1.750000	0.770000	289.00	-0.102974	-0.042219	0.00	0.00	0.25	1.00	0.50	0.75	0.00	2.00	1.00	1.25	1.75	2.50	3.00	0.50	0.50	2.00	-0.170410	0.143555	0.987305	-1.260000	-4.690000	4.270000	160.00	0.126577	-0.209337
0.93	3.50	3.50	4.00	5.00	1.50	2.75	0.25	0.75	2.75	1.00	0.75	0.75	0.75	2.00	0.25	0.50	-0.161133	0.114258	0.980957	-1.610000	1.750000	0.770000	293.00	-0.114568	-0.044346	0.00	0.00	0.25	0.75	0.50	1.00	0.00	2.25	1.00	1.25	1.75	2.50	3.00	0.50	0.50	2.00	-0.176758	0.143555	0.990723	-1.190000	-4.690000	4.410000	164.00	0.125737	-0.213936
0.94	3.50	3.75	4.00	5.00	1.75	2.75	0.25	0.75	2.75	1.00	0.50	0.75	0.75	1.75	0.25	0.50	-0.165039	0.115234	0.971680	-1.820000	1.750000	0.770000	294.00	-0.123108	-0.045208	0.00	0.00	0.50	1.25	0.50	1.00	0.00	2.00	1.00	1.25	1.75	2.50	2.75	0.50	0.50	1.75	-0.173340	0.145508	0.985352	-1.050000	-4.830000	4.480000	165.00	0.107690	-0.202061
0.95	3.50	3.75	3.75	5.00	1.75	2.25	0.25	0.75	2.75	1.00	0.50	0.75	0.75	2.00	0.25	0.50	-0.162109	0.117676	0.976074	-1.750000	1.680000	0.770000	288.00	-0.117710	-0.040956	0.00	0.00	0.75	1.25	0.50	1.00	0.00	2.25	1.00	1.00	1.75	2.50	3.00	0.50	0.50	1.75	-0.173340	0.145508	0.985352	-1.050000	-4.830000	4.480000	170.00	0.098518	-0.208320
0.96	3.50	3.75	4.00	5.00	1.75	2.25	0.25	1.00	2.50	1.00	0.50	0.50	0.75	2.00	0.25	0.50	-0.166504	0.113281	0.988770	-1.960000	1.750000	0.980000	289.00	-0.124355	-0.045169	0.00	0.00	0.50	1.25	0.50	1.00	0.00	2.25	1.00	1.50	1.75	2.50	3.00	0.50	0.50	1.75	-0.174316	0.147949	0.985840	-1.050000	-5.040000	4.550000	173.00	0.107823	-0.205221
0.97	3.50	3.75	4.00	4.75	1.75	2.25	0.25	1.00	2.50	1.00	0.50	0.50	0.75	1.75	0.50	0.50	-0.164551	0.118164	0.982910	-2.100000	1.680000	0.980000	287.00	-0.122105	-0.045426	0.00	0.00	0.25	1.25	0.50	0.75	0.00	2.25	1.00	1.75	1.50	2.50	2.75	0.50	0.50	1.75	-0.174805	0.145996	0.992676	-0.840000	-5.670000	4.830000	165.00	0.116945	-0.203081
0.98	3.50	3.75	4.00	5.00	1.50	2.00	0.25	0.75	2.75	1.00	0.50	0.50	0.75	1.75	0.50	0.50	-0.165527	0.117676	0.985352	-2.170000	1.680000	0.980000	284.00	-0.120628	-0.038343	0.00	0.00	0.50	1.25	0.50	1.00	0.00	2.25	1.25	1.50	1.75	2.50	3.00	0.50	0.50	1.75	-0.178711	0.146973	0.987305	-0.700000	-5.880000	5.110000	176.00	0.110354	-0.197044
0.99	3.50	3.75	3.75	5.00	1.50	2.00	0.25	0.75	2.50	1.00	0.50	0.50	0.75	1.75	0.50	0.50	-0.173828	0.112305	0.985352	-2.310000	1.610000	0.910000	278.00	-0.123356	-0.042880	0.00	0.00	0.75	1.50	0.50	1.25	0.00	2.25	1.25	1.75	1.75	2.50	3.00	0.50	0.50	1.75	-0.176270	0.153320	0.982910	-0.490000	-6.230000	5.250000	185.00	0.097945	-0.191150
1.00	3.50	3.75	3.75	5.00	1.50	2.00	0.25	0.75	2.25	1.00	0.50	0.50	0.50	1.75	0.50	0.50	-0.167480	0.117676	0.983887	-2.100000	1.540000	0.980000	273.00	-0.129656	-0.043299	0.00	0.00	0.50	1.50	0.50	1.50	0.00	2.50	1.00	1.75	1.75	2.50	3.00	0.50	0.50	1.75	-0.172363	0.148926	0.990234	-0.490000	-6.510000	5.320000	186.00	0.094980	-0.207346
1.01	3.50	3.75	4.00	5.00	1.50	2.00	0.25	0.50	2.25	1.00	0.50	0.25	0.25	1.75	0.25	0.50	-0.162598	0.116211	0.979980	-2.030000	1.330000	1.190000	265.00	-0.142713	-0.031663	0.00	0.00	0.75	1.50	0.75	1.50	0.00	2.50	1.00	1.50	1.75	2.75	3.25	0.50	0.50	1.75	-0.180176	0.142090	0.993164	-0.630000	-6.860000	5.460000	193.00	0.087730	-0.206993
1.02	3.50	3.75	4.00	5.00	1.50	2.00	0.25	0.50	2.25	1.00	0.50	0.50	0.50	1.75	0.25	0.50	-0.163574	0.119629	0.978516	-2.520000	1.540000	1.050000	270.00	-0.137262	-0.037205	0.00	0.25	1.00	2.00	1.00	1.50	0.00	2.75	1.00	1.75	1.75	2.50	3.25	0.50	0.50	1.75	-0.176758	0.142090	0.991211	-0.630000	-7.210000	5.810000	209.00	0.065420	-0.199130
1.03	3.50	3.75	3.75	5.00	1.50	2.00	0.25	0.50	2.25	1.00	0.50	0.50	0.50	1.75	0.25	0.50	-0.165039	0.117676	0.982422	-2.660000	1.610000	0.980000	267.00	-0.136036	-0.038413	0.00	0.00	0.75	2.25	1.00	1.75	0.00	2.50	1.00	1.75	1.75	2.50	3.00	0.50	0.50	1.50	-0.176758	0.150879	0.989746	-0.700000	-7.840000	6.020000	202.00	0.066050	-0.197735
1.04	3.50	4.00	3.75	5.00	1.25	2.75	0.25	0.50	2.25	1.00	0.50	0.50	0.25	1.75	0.25	0.25	-0.166504	0.115723	0.978516	-2.450000	1.470000	1.050000	271.00	-0.143296	-0.042405	0.00	0.00	0.75	2.50	1.00	1.75	0.00	3.00	0.75	1.25	1.50	2.50	3.00	0.25	0.50	1.50	-0.176270	0.149414	0.989258	-0.560000	-8.470000	6.230000	200.00	0.046554	-0.222807
1.05	3.50	3.75	4.00	5.00	1.25	2.75	0.25	0.50	2.00	1.00	0.25	0.50	0.25	1.50	0.25	0.25	-0.173340	0.116699	0.981445	-1.890000	1.120000	1.330000	264.00	-0.154286	-0.044696	0.00	0.00	1.50	3.25	1.25	3.75	0.00	3.00	0.75	1.00	1.50	2.50	3.00	0.25	0.50	1.50	-0.176270	0.140137	0.990234	-0.280000	-9.310000	6.650000	235.00	0.005014	-0.216803
1.06	3.50	3.75	4.00	5.50	1.25	2.25	0.25	0.50	2.00	0.75	0.50	0.25	0.00	1.25	0.00	0.00	-0.169434	0.117188	0.988770	-1.750000	1.120000	1.470000	254.00	-0.175277	-0.039849	0.00	0.25	2.00	3.25	1.25	4.00	0.00	3.50	0.50	1.00	1.25	2.50	2.75	0.25	0.50	1.50	-0.172852	0.144043	0.987305	-0.140000	-10.080000	7.070000	244.00	-0.012972	-0.220532
1.07	3.50	4.00	4.00	5.50	1.25	2.25	0.25	0.50	2.00	0.75	0.50	0.25	0.50	1.25	0.00	0.25	-0.166992	0.114258	0.982910	-1.540000	1.050000	1.610000	261.00	-0.169404	-0.048606	0.00	0.25	2.00	4.25	2.00	4.25	0.25	3.50	0.50	1.00	1.00	2.25	2.75	0.25	0.25	1.50	-0.166016	0.146973	0.986816	-0.070000	-10.570000	7.420000	260.00	-0.035024	-0.208402
1.08	3.75	3.75	4.00	5.50	1.25	2.25	0.25	0.50	1.75	0.75	0.50	0.25	0.25	1.00	0.25	0.00	-0.165039	0.113770	0.983398	-1.470000	0.910000	1.890000	256.00	-0.178736	-0.047491	0.00	0.50	2.25	4.75	2.00	4.25	0.25	3.50	0.50	0.75	1.00	2.25	2.75	0.00	0.25	1.25	-0.172363	0.144531	0.991699	-0.000000	-10.920000	7.840000	264.00	-0.052725	-0.210308
1.09	3.50	4.00	4.25	6.00	1.25	2.25	0.25	0.50	1.50	0.50	0.50	0.25	0.25	1.00	0.25	0.00	-0.165039	0.113770	0.983398	-1.470000	0.910000	1.890000	258.00	-0.190508	-0.056754	0.25	0.75	3.75	6.00	2.50	4.50	0.25	3.75	0.50	0.50	1.00	2.00	2.75	0.00	0.25	1.25	-0.163086	0.144043	0.991699	-0.000000	-11.060000	7.980000	303.00	-0.084406	-0.192537
1.10	3.50	4.25	4.25	6.00	1.25	2.00	0.25	0.50	1.50	0.50	0.00	0.00	0.25	0.75	0.00	0.00	-0.163574	0.117676	0.980469	-1.610000	1.050000	1.960000	246.00	-0.215514	-0.053619	0.25	1.00	4.25	6.25	2.50	5.25	0.25	3.75	0.50	0.50	1.00	2.00	2.75	0.00	0.25	1.25	-0.163574	0.151367	0.991699	-0.140000	-10.710000	7.980000	320.00	-0.092651	-0.189996
1.11	3.75	4.25	4.25	6.25	1.25	2.00	0.25	0.50	1.25	0.50	0.00	0.00	0.00	0.75	0.25	0.00	-0.154297	0.120117	0.981934	-2.310000	1.190000	2.240000	248.00	-0.220756	-0.054754	0.25	1.75	4.50	7.00	2.50	5.50	0.25	3.75	0.50	0.50	0.75	1.75	2.75	0.00	0.50	1.25	-0.156738	0.147461	0.996582	-0.280000	-10.010000	7.770000	337.00	-0.105672	-0.187825
1.12	3.75	4.25	4.25	6.25	1.25	2.00	0.25	0.50	1.25	0.75	0.00	0.25	0.00	1.00	0.25	0.00	-0.149902	0.121094	0.970215	-3.010000	1.610000	2.240000	255.00	-0.207537	-0.054148	0.50	1.75	4.75	7.75	2.50	5.75	0.25	3.75	0.50	0.50	0.75	1.75	2.50	0.00	0.25	1.00	-0.151855	0.150879	0.992676	-0.560000	-9.240000	7.630000	346.00	-0.120030	-0.183873
1.13	3.75	4.25	4.25	6.25	1.25	2.00	0.25	0.25	1.25	0.50	0.00	0.00	0.00	0.50	0.00	0.00	-0.150879	0.115234	0.981934	-3.710000	1.680000	1.960000	240.00	-0.235222	-0.051493	1.00	2.00	5.50	7.75	3.00	5.75	0.25	3.75	0.50	0.50	0.75	1.50	2.50	0.00	0.25	1.00	-0.156738	0.151855	0.990723	-0.630000	-8.820000	7.420000	363.00	-0.130769	-0.170059
1.14	3.75	4.25	4.50	6.25	1.25	2.00	0.25	0.50	1.25	0.50	0.00	0.00	0.00	0.25	0.00	0.00	-0.156738	0.115234	0.976562	-3.920000	1.680000	1.610000	244.00	-0.237542	-0.056692	1.00	2.50	5.50	7.75	3.00	6.50	0.25	3.75	0.50	0.50	0.75	1.50	2.25	0.00	0.25	1.00	-0.155273	0.154785	0.989258	-0.560000	-8.330000	7.350000	373.00	-0.136035	-0.170513
1.15	3.75	4.75	4.50	6.25	1.50	2.00	0.25	0.50	1.25	0.50	0.00	0.00	0.00	0.25	0.00	0.00	-0.158203	0.110352	0.984863	-4.270000	1.680000	1.540000	251.00	-0.239422	-0.057347	1.75	3.00	5.50	7.75	3.25	6.75	0.25	3.75	0.25	0.50	0.75	1.50	2.25	0.00	0.25	0.75	-0.155762	0.151367	0.996094	-0.630000	-7.910000	7.070000	385.00	-0.148735	-0.167457
1.16	4.00	4.50	4.50	6.50	1.50	2.00	0.25	0.25	1.00	0.50	0.00	0.00	0.00	0.50	0.00	0.00	-0.159668	0.111816	0.977051	-4.130000	1.680000	1.610000	249.00	-0.243976	-0.054015	2.25	3.25	5.75	8.75	3.50	7.00	0.25	3.75	0.25	0.25	0.75	1.50	2.25	0.00	0.25	0.75	-0.150391	0.153320	0.994141	-0.630000	-7.490000	7.000000	407.00	-0.159392	-0.164626
1.17	4.00	4.75	4.75	6.75	1.25	1.75	0.25	0.25	1.00	0.50	0.00	0.00	0.00	0.25	0.00	0.00	-0.174316	0.101562	0.981934	-3.570000	1.680000	1.820000	250.00	-0.253332	-0.056003	2.50	3.75	6.00	9.25	3.50	7.00	0.25	3.75	0.50	0.25	0.75	1.50	2.25	0.00	0.00	0.50	-0.150391	0.151855	0.993164	-1.050000	-6.930000	6.790000	420.00	-0.167357	-0.159184
1.18	4.00	5.25	4.75	6.75	1.25	1.75	0.25	0.25	1.00	0.25	0.00	0.00	0.00	0.25	0.00	0.00	-0.166016	0.100586	0.968262	-2.730000	1.750000	1.890000	251.00	-0.260735	-0.058980	2.50	3.75	7.00	9.75	3.50	7.00	0.25	3.75	0.25	0.25	0.50	1.50	2.25	0.00	0.00	0.50	-0.153809	0.149414	0.993652	-1.330000	-6.650000	6.580000	430.00	-0.176227	-0.157308
1.19	4.00	4.75	4.75	6.75	1.50	1.75	0.25	0.25	1.00	0.00	0.00	0.00	0.00	0.25	0.00	0.00	-0.166016	0.097656	0.973145	-1.540000	1.330000	2.240000	247.00	-0.261526	-0.057117	3.75	4.25	7.00	10.50	3.50	7.25	0.25	3.75	0.00	0.25	0.50	1.50	2.25	0.00	0.00	0.50	-0.149414	0.145020	0.988770	-1.750000	-6.160000	6.370000	453.00	-0.188965	-0.155048
1.20	4.00	5.25	4.75	6.50	1.50	1.50	0.25	0.25	1.00	0.00	0.00	0.00	0.00	0.25	0.00	0.00	-0.170410	0.107910	0.975586	-0.350000	1.120000	2.520000	247.00	-0.265011	-0.055095	3.75	4.25	7.75	10.50	3.50	7.00	0.25	3.75	0.00	0.25	0.75	1.25	2.00	0.00	0.00	0.50	-0.155273	0.148926	0.989258	-2.100000	-5.530000	5.950000	456.00	-0.191944	-0.148017
1.21	4.25	5.25	5.00	6.75	1.25	1.50	0.25	0.25	0.75	0.00	0.00	0.00	0.00	0.00	0.00	0.00	-0.167480	0.110840	0.977539	-0.210000	0.980000	2.660000	247.00	-0.279688	-0.060780	3.50	4.25	7.75	10.75	3.75	7.25	0.25	3.50	0.25	0.25	0.75	1.50	1.75	0.00	0.00	0.50	-0.147949	0.150879	0.981445	-3.150000	-4.550000	5.320000	461.00	-0.188713	-0.144124
1.22	4.50	5.50	5.00	7.50	1.25	1.75	0.25	0.25	0.75	0.00	0.00	0.00	0.00	0.00	0.00	0.00	-0.162598	0.102051	0.978516	-0.280000	0.840000	2.590000	261.00	-0.280927	-0.066843	3.50	4.25	7.75	10.75	3.75	8.00	0.25	3.50	0.25	0.25	0.25	1.50	1.75	0.00	0.00	0.50	-0.146484	0.151855	0.990234	-3.640000	-4.200000	4.970000	464.00	-0.192404	-0.146486
1.23	4.50	5.50	5.00	7.50	1.25	2.00	0.25	0.25	0.75	0.00	0.00	0.00	0.00	0.00	0.00	0.00	-0.162109	0.105469	0.972168	0.630000	1.050000	2.660000	264.00	-0.279712	-0.068788	3.75	4.75	7.75	10.75	3.50	8.00	0.25	3.50	0.25	0.50	0.25	1.25	1.75	0.00	0.00	0.25	-0.146484	0.151855	0.990234	-3.640000	-4.200000	4.970000	467.00	-0.197205	-0.144200
1.24	4.50	5.50	5.25	7.50	1.25	1.75	0.25	0.25	0.75	0.00	0.00	0.00	0.00	0.00	0.00	0.00	-0.156738	0.105957	0.978516	0.980000	0.420000	2.800000	264.00	-0.280777	-0.065331	4.00	4.75	7.75	10.75	3.50	7.25	0.25	3.50	0.00	0.25	0.50	1.25	1.50	0.00	0.00	0.25	-0.156738	0.147949	0.987793	-4.410000	-3.150000	4.410000	457.00	-0.203642	-0.143078
1.25	4.75	6.00	5.50	8.75	1.25	2.00	0.25	0.50	0.75	0.00	0.00	0.00	0.00	0.00	0.00	0.00	-0.152344	0.107422	0.972168	1.260000	-0.280000	2.660000	291.00	-0.279593	-0.076557	4.00	4.75	7.75	10.75	3.75	7.00	0.25	3.50	0.00	0.25	0.50	1.25	1.50	0.00	0.00	0.25	-0.152832	0.148926	0.992676	-4.480000	-2.590000	4.340000	457.00	-0.203491	-0.141247
1.26	5.00	6.00	5.50	8.75	1.25	2.00	0.25	0.50	0.50	0.00	0.00	0.00	0.00	0.00	0.00	0.00	-0.156738	0.119141	0.981445	1.400000	-0.770000	2.520000	291.00	-0.286121	-0.078660	4.25	4.75	7.75	10.75	3.75	7.00	0.25	3.25	0.00	0.25	0.50	1.25	1.50	0.00	0.00	0.25	-0.141113	0.151855	0.977539	-4.550000	-2.240000	4.200000	456.00	-0.205987	-0.138036
1.27	5.00	6.00	5.25	8.75	1.25	2.50	0.25	0.25	0.50	0.00	0.00	0.00	0.00	0.00	0.00	0.00	-0.153320	0.117188	0.984375	1.610000	-1.190000	2.590000	290.00	-0.287289	-0.079719	4.00	4.75	7.75	10.50	3.50	7.00	0.25	3.00	0.25	0.25	0.50	1.25	1.50	0.00	0.00	0.25	-0.140625	0.150391	0.990234	-4.130000	-2.030000	3.780000	448.00	-0.203353	-0.135246
1.28	5.00	6.50	5.50	8.75	1.25	2.50	0.25	0.25	0.50	0.00	0.00	0.00	0.00	0.00	0.00	0.00	-0.155273	0.116699	0.969727	1.120000	-0.840000	2.380000	296.00	-0.288939	-0.079490	4.00	4.75	7.75	10.50	3.50	6.75	0.25	3.00	0.25	0.25	0.50	1.25	1.50	0.00	0.00	0.25	-0.144531	0.148926	0.984863	-3.360000	-1.750000	3.150000	445.00	-0.203639	-0.134477
1.29	5.00	6.00	5.50	8.75	1.25	2.25	0.25	0.25	0.50	0.00	0.00	0.00	0.00	0.00	0.00	0.00	-0.155273	0.116699	0.969727	1.120000	-0.840000	2.380000	290.00	-0.288257	-0.076570	3.75	4.75	7.50	9.75	3.50	6.50	0.25	3.00	0.00	0.25	0.50	1.00	1.50	0.00	0.25	0.25	-0.139160	0.147949	0.987305	-2.520000	-1.190000	2.520000	427.00	-0.203085	-0.136423
1.30	5.50	6.50	5.50	8.75	1.25	2.00	0.25	0.25	0.75	0.00	0.00	0.00	0.00	0.00	0.00	0.00	-0.158203	0.107910	0.963379	1.190000	0.210000	2.240000	299.00	-0.287568	-0.069751	3.50	4.25	6.75	9.25	3.25	6.50	0.25	3.00	0.00	0.50	0.50	1.00	1.50	0.00	0.25	0.25	-0.149902	0.151855	0.992676	-2.100000	-0.210000	1.820000	408.00	-0.195403	-0.140738
1.31	5.50	6.75	5.50	8.75	1.50	2.25	0.25	0.25	0.75	0.00	0.00	0.00	0.00	0.00	0.00	0.00	-0.150391	0.120117	0.970215	1.190000	0.980000	2.170000	306.00	-0.286025	-0.070989	3.25	4.00	5.75	8.25	3.00	5.75	0.25	2.75	0.00	0.50	0.75	1.00	1.50	0.00	0.00	0.50	-0.138672	0.153320	0.992676	-1.680000	1.190000	0.840000	371.00	-0.190792	-0.143399
1.32	5.00	6.75	5.50	9.00	1.50	2.50	0.25	0.25	0.75	0.00	0.00	0.00	0.00	0.00	0.00	0.00	-0.157227	0.119629	0.966797	1.190000	1.470000	2.380000	306.00	-0.283138	-0.076666	3.25	3.75	5.00	7.75	3.00	5.25	0.00	2.75	0.25	0.25	0.75	1.50	1.50	0.00	0.25	0.50	-0.140137	0.152832	0.998047	-1.820000	3.360000	-0.350000	356.00	-0.179317	-0.148612
1.33	5.00	6.75	6.00	8.75	1.50	3.00	0.25	0.25	0.75	0.00	0.00	0.00	0.00	0.25	0.00	0.00	-0.158203	0.116699	0.969238	1.470000	1.120000	2.660000	316.00	-0.276458	-0.074327	3.00	3.50	4.75	7.00	2.25	4.75	0.00	2.75	0.25	0.50	0.75	1.50	1.75	0.00	0.25	0.50	-0.144531	0.161621	1.002930	-2.800000	6.650000	-1.750000	333.00	-0.169660	-0.153680
1.34	5.50	6.75	6.25	9.25	1.50	4.00	0.25	0.25	0.75	0.00	0.00	0.00	0.00	0.00	0.00	0.00	-0.155762	0.118164	0.963379	2.100000	0.490000	3.360000	336.00	-0.278651	-0.080091	2.25	3.00	4.25	6.25	1.75	4.25	0.00	2.50	0.00	0.50	0.75	1.50	2.00	0.00	0.25	0.75	-0.145020	0.156250	1.017578	-4.480000	10.850000	-3.430000	296.00	-0.158568	-0.168111
1.35	5.50	7.25	6.25	9.25	1.75	4.00	0.25	0.50	0.75	0.00	0.00	0.00	0.00	0.00	0.00	0.00	-0.155762	0.117676	0.969727	2.170000	-0.350000	4.060000	346.00	-0.276544	-0.083239	1.00	2.00	2.50	5.00	1.25	3.75	0.00	2.00	0.25	0.50	0.75	1.75	1.75	0.00	0.25	0.75	-0.162109	0.155762	1.029785	-6.580000	15.960000	-4.900000	232.00	-0.120343	-0.188197
1.36	5.75	8.00	6.25	10.50	1.75	4.00	0.25	0.50	0.75	0.00	0.00	0.00	0.00	0.00	0.00	0.00	-0.153320	0.123047	0.966309	1.960000	-1.330000	4.830000	368.00	-0.280143	-0.088257	0.25	1.00	1.75	3.50	0.50	2.25	0.00	1.75	0.50	0.50	1.00	1.50	1.50	0.00	0.50	1.25	-0.165527	0.156250	1.060547	-8.680000	22.260000	-5.740000	173.00	-0.055018	-0.196675
1.37	5.75	8.25	7.00	11.25	2.00	4.25	0.25	0.50	0.75	0.00	0.00	0.00	0.00	0.00	0.00	0.00	-0.163574	0.117676	0.980469	1.610000	-2.310000	5.460000	390.00	-0.278922	-0.088042	0.00	0.25	0.75	2.25	0.50	1.00	0.00	1.25	0.50	0.75	1.25	1.75	1.50	0.00	0.50	1.25	-0.111328	0.151367	1.161621	-13.090000	34.369999	-6.300000	130.00	0.030479	-0.201309
1.38	5.75	9.00	8.00	12.00	2.00	4.50	0.25	0.50	1.00	0.00	0.00	0.00	0.00	0.00	0.00	0.00	-0.162598	0.114746	0.979492	1.750000	-3.990000	5.740000	420.00	-0.276252	-0.085867	0.00	0.00	0.25	1.00	0.00	0.25	0.00	0.75	0.50	0.75	1.25	1.75	1.50	0.00	0.50	1.25	-0.093750	0.240723	1.488281	-20.440001	71.330002	-10.150000	91.00	0.128530	-0.209274
1.39	6.00	8.75	8.75	12.50	2.50	4.75	0.25	0.75	1.00	0.00	0.00	0.00	0.00	0.00	0.00	0.00	-0.160645	0.120117	0.980469	1.890000	-4.830000	5.670000	443.00	-0.271731	-0.084775	0.00	0.00	0.00	0.25	0.00	0.00	0.00	0.25	0.50	0.75	1.25	1.75	1.00	0.00	0.50	1.25	-0.169434	0.234375	1.453613	-15.610000	129.360001	-21.910000	67.00	0.212731	-0.182594
1.40	6.00	9.75	9.00	13.50	3.00	5.25	0.25	0.75	0.75	0.00	0.00	0.00	0.25	0.00	0.00	0.00	-0.152344	0.119141	0.980957	2.170000	-5.320000	5.460000	473.00	-0.273282	-0.092538	0.00	0.00	0.00	0.00	0.00	0.00	0.00	0.25	0.25	0.75	1.00	1.50	0.50	0.00	0.50	1.25	-0.212402	0.248047	1.443848	-14.980000	168.910004	-27.580000	53.00	0.236929	-0.183281
1.41	6.50	10.25	9.25	14.00	3.75	5.50	0.25	1.25	0.75	0.00	0.00	0.00	0.25	0.00	0.00	0.00	-0.154297	0.117676	0.983398	2.940000	-6.090000	5.110000	507.00	-0.269417	-0.094366	0.00	0.00	0.00	0.00	0.00	0.25	0.00	0.25	0.25	0.75	1.25	1.25	0.50	0.00	0.50	1.25	-0.271973	0.295898	1.581055	-16.450001	194.880005	-33.180000	55.00	0.220246	-0.179514
1.42	6.75	11.25	9.75	14.50	3.75	6.00	0.25	1.50	0.75	0.00	0.00	0.00	0.25	0.00	0.00	0.00	-0.150391	0.119629	0.997070	3.920000	-6.160000	4.690000	536.00	-0.269698	-0.097653	0.00	0.00	0.00	0.00	0.00	0.00	0.00	0.25	0.50	0.50	1.25	1.25	0.50	0.00	0.50	0.75	-0.212402	0.286133	1.497559	-24.290001	219.029999	-42.700001	51.00	0.232802	-0.153060
1.43	7.25	11.25	10.75	14.75	4.00	6.75	0.25	1.75	0.75	0.00	0.00	0.00	0.25	0.00	0.00	0.00	-0.153809	0.127930	0.988770	4.410000	-5.950000	4.270000	567.00	-0.267054	-0.096531	0.00	0.00	0.00	0.00	0.00	0.00	0.00	0.00	0.50	0.50	1.00	1.25	0.50	0.00	0.00	0.50	-0.274902	0.357422	1.511230	-32.060001	237.160004	-51.730000	39.00	0.000000	0.000000
1.44	7.25	11.75	10.75	15.00	4.00	7.25	0.25	1.75	1.00	0.25	0.00	0.00	0.75	0.00	0.00	0.00	-0.141602	0.132324	0.983398	4.480000	-4.690000	3.080000	588.00	-0.259567	-0.099009	0.00	0.00	0.00	0.00	0.00	0.00	0.00	0.00	0.50	0.50	0.75	1.00	0.00	0.00	0.00	0.50	-0.265625	0.442871	1.511230	-34.160000	246.750000	-62.369999	30.00	0.000000	0.000000
1.45	7.50	12.25	10.75	15.25	4.25	7.25	0.25	1.75	1.00	0.25	0.00	0.00	0.75	0.00	0.00	0.00	-0.141602	0.132324	0.983398	4.480000	-4.690000	3.080000	600.00	-0.260791	-0.098515	0.00	0.00	0.00	0.00	0.00	0.00	0.00	0.00	0.25	0.50	0.75	0.75	0.00	0.00	0.00	0.25	-0.234863	0.582520	1.425293	-12.740000	236.529999	-92.190002	23.00	0.000000	0.000000
1.46	8.00	12.50	11.00	15.50	4.25	7.50	0.50	2.00	0.75	0.00	0.00	0.00	0.50	0.00	0.00	0.00	-0.140625	0.132324	0.980957	3.920000	-3.430000	2.310000	614.00	-0.264632	-0.098581	0.00	0.00	0.00	0.00	0.00	0.00	0.00	0.00	0.25	0.25	0.50	0.50	0.00	0.00	0.00	0.25	-0.234863	0.582520	1.425293	-12.740000	236.529999	-92.190002	16.00	0.000000	0.000000
1.47	7.50	12.50	11.00	15.25	4.50	7.75	0.50	2.25	0.75	0.00	0.00	0.00	0.50	0.00	0.00	0.00	-0.143555	0.129883	0.988770	3.570000	-2.730000	2.030000	615.00	-0.261021	-0.101372	0.00	0.00	0.00	0.00	0.00	0.00	0.00	0.00	0.25	0.00	0.25	0.25	0.00	0.00	0.00	0.25	-0.029785	0.675293	1.320312	5.320000	219.940002	-107.029999	9.00	0.000000	0.000000
1.48	8.00	12.50	11.25	15.25	4.50	7.50	0.50	2.50	0.75	0.25	0.00	0.00	0.75	0.25	0.00	0.00	-0.138672	0.136230	0.982910	3.080000	-1.820000	1.610000	630.00	-0.255819	-0.099596	0.00	0.00	0.00	0.00	0.00	0.00	0.00	0.00	0.00	0.00	0.25	0.25	0.00	0.00	0.00	0.00	0.876465	0.975586	1.466797	18.549999	194.250000	-111.580002	5.00	0.000000	0.000000
1.49	8.00	12.50	11.25	15.00	4.50	8.00	0.25	2.50	0.75	0.25	0.00	0.00	0.75	0.00	0.00	0.00	-0.136719	0.132324	0.983887	2.520000	-0.980000	1.260000	627.00	-0.258822	-0.103238	0.00	0.00	0.00	0.00	0.00	0.00	0.00	0.00	0.00	0.00	0.00	0.00	0.00	0.00	0.00	0.00	0.640625	1.191406	1.968262	40.950001	61.040001	-37.590000	0.00	0.000000	0.000000
1.50	8.00	12.50	11.00	14.75	4.50	8.00	0.25	2.75	1.00	0.50	0.00	0.25	0.75	0.00	0.00	0.00	-0.126465	0.138672	0.986816	1.820000	0.070000	0.840000	633.00	-0.251230	-0.103437	0.00	0.00	0.00	0.00	0.00	0.00	0.00	0.00	0.00	0.00	0.00	0.25	0.00	0.00	0.00	0.00	0.640625	1.191406	1.968262	40.950001	61.040001	-37.590000	2.00	0.000000	0.000000
1.51	8.00	12.25	11.25	14.75	4.50	8.25	0.25	2.75	1.00	0.25	0.00	0.25	0.75	0.00	0.00	0.00	-0.132324	0.140625	0.987305	0.980000	1.190000	0.350000	633.00	-0.252195	-0.103745	0.00	0.00	0.00	0.00	0.00	0.00	0.00	0.00	0.00	0.00	0.00	0.00	0.00	0.00	0.00	0.00	0.717773	0.673340	0.784180	37.170002	-10.360000	28.770000	0.00	0.000000	0.000000
1.52	7.50	12.00	11.25	14.50	4.50	8.00	0.25	2.50	0.75	0.25	0.00	0.25	0.75	0.00	0.00	0.00	-0.139648	0.134766	0.988770	-0.000000	2.380000	-0.140000	615.00	-0.254559	-0.104201	0.00	0.00	0.00	0.00	0.00	0.00	0.00	0.00	0.00	0.00	0.00	0.00	0.00	0.00	0.00	0.00	0.642090	0.623047	0.816895	45.009998	-13.510000	42.279999	0.00	0.000000	0.000000
1.53	7.50	11.75	11.00	14.25	4.25	7.50	0.25	2.50	1.00	0.50	0.00	0.00	0.75	0.00	0.00	0.00	-0.143066	0.135254	0.984863	-0.630000	3.360000	-0.350000	603.00	-0.252561	-0.100295	0.00	0.00	0.00	0.00	0.00	0.00	0.00	0.00	0.00	0.00	0.00	0.00	0.00	0.00	0.00	0.00	0.745605	0.542969	0.882324	63.139999	-18.129999	49.910000	0.00	0.000000	0.000000
1.54	7.50	11.75	11.00	14.25	4.25	7.50	0.50	2.50	0.75	0.50	0.00	0.25	0.75	0.00	0.00	0.00	-0.137695	0.134277	0.984863	-1.400000	4.130000	-0.630000	606.00	-0.251322	-0.100950	0.00	0.00	0.00	0.00	0.00	0.00	0.00	0.00	0.00	0.00	0.00	0.00	0.00	0.00	0.00	0.00	0.764160	0.429688	1.015625	80.570000	-31.430000	57.540001	0.00	0.000000	0.000000
1.55	7.50	11.50	10.75	14.00	4.25	7.25	0.25	2.50	0.75	0.25	0.00	0.25	0.75	0.25	0.00	0.00	-0.139648	0.139648	0.980469	-2.590000	4.620000	-0.980000	593.00	-0.252673	-0.102056	0.00	0.00	0.00	0.00	0.00	0.00	0.00	0.00	0.00	0.00	0.00	0.00	0.00	0.00	0.00	0.00	0.711914	0.299316	1.075684	88.340004	-51.170002	66.290001	0.00	0.000000	0.000000
1.56	7.50	11.25	10.50	13.75	4.00	7.25	0.25	2.50	0.75	0.25	0.00	0.00	0.75	0.25	0.00	0.00	-0.143555	0.136230	0.976562	-3.290000	4.830000	-1.050000	581.00	-0.254342	-0.102037	0.00	0.00	0.00	0.00	0.00	0.00	0.00	0.00	0.00	0.00	0.00	0.00	0.00	0.00	0.00	0.00	0.667480	0.178711	1.062012	86.239998	-71.190002	74.059998	0.00	0.000000	0.000000
1.57	7.25	10.25	10.25	13.50	4.25	6.75	0.50	2.25	1.00	0.50	0.00	0.25	0.75	0.25	0.00	0.00	-0.140625	0.131836	0.974609	-3.430000	4.830000	-1.050000	570.00	-0.244177	-0.094348	0.00	0.00	0.00	0.00	0.00	0.00	0.00	0.00	0.00	0.00	0.00	0.00	0.00	0.00	0.00	0.00	0.587891	0.098633	1.050781	78.400002	-88.760002	78.889999	0.00	0.000000	0.000000
1.58	7.00	10.00	10.00	13.50	4.00	6.75	0.50	2.50	0.75	0.50	0.00	0.25	0.75	0.25	0.00	0.00	-0.145020	0.128418	0.991699	-3.430000	4.550000	-0.910000	561.00	-0.244527	-0.100278	0.00	0.00	0.00	0.00	0.00	0.00	0.00	0.00	0.00	0.00	0.00	0.00	0.00	0.00	0.00	0.00	0.520508	0.037598	1.051270	70.629997	-103.739998	80.779999	0.00	0.000000	0.000000
1.59	7.00	9.75	9.75	13.25	4.00	6.50	0.25	2.25	0.75	0.00	0.00	0.25	0.75	0.50	0.00	0.00	-0.154297	0.134277	0.977539	-3.220000	4.410000	-0.700000	542.00	-0.249455	-0.100321	0.00	0.00	0.00	0.00	0.00	0.00	0.00	0.00	0.00	0.00	0.00	0.00	0.00	0.00	0.00	0.00	0.454102	0.007324	1.076660	66.010002	-117.529999	80.290001	0.00	0.000000	0.000000
1.60	7.00	9.50	9.75	13.25	4.25	6.50	0.25	2.25	1.25	0.25	0.00	0.00	0.75	0.50	0.00	0.00	-0.148438	0.132812	0.973145	-3.080000	3.710000	-0.280000	548.00	-0.242612	-0.093663	0.00	0.00	0.00	0.00	0.00	0.00	0.00	0.00	0.00	0.00	0.00	0.00	0.00	0.00	0.00	0.00	0.400879	-0.033691	1.109375	64.050003	-130.479996	78.750000	0.00	0.000000	0.000000
1.61	6.75	9.25	9.50	13.00	4.25	6.50	0.50	2.25	1.00	0.25	0.00	0.25	1.00	0.25	0.00	0.25	-0.148438	0.132812	0.973145	-3.080000	3.710000	-0.280000	543.00	-0.239045	-0.098120	0.00	0.00	0.00	0.00	0.00	0.00	0.00	0.00	0.00	0.00	0.00	0.00	0.00	0.00	0.00	0.00	0.331543	-0.064941	1.127441	62.020000	-142.869995	77.000000	0.00	0.000000	0.000000
1.62	6.50	9.25	9.50	12.75	4.00	6.50	0.50	2.25	0.75	0.50	0.00	0.50	0.75	0.25	0.00	0.00	-0.145996	0.130371	0.978516	-3.360000	3.360000	-0.210000	534.00	-0.240168	-0.099589	0.00	0.00	0.00	0.00	0.00	0.00	0.00	0.00	0.00	0.00	0.00	0.00	0.00	0.00	0.00	0.00	0.269531	-0.095215	1.138184	57.119999	-153.860001	75.459999	0.00	0.000000	0.000000
1.63	6.50	9.25	9.25	12.75	4.25	6.50	0.50	2.25	0.75	0.25	0.00	0.25	0.75	0.50	0.00	0.00	-0.138672	0.127930	0.967285	-3.710000	3.150000	-0.350000	531.00	-0.241297	-0.098559	0.00	0.00	0.00	0.00	0.00	0.00	0.00	0.00	0.00	0.00	0.00	0.00	0.00	0.00	0.00	0.00	0.197266	-0.095703	1.169434	49.139999	-163.169998	73.849998	0.00	0.000000	0.000000
1.64	6.75	9.00	9.25	12.75	4.25	6.25	0.50	2.00	1.00	0.50	0.00	0.50	1.00	0.50	0.00	0.00	-0.140137	0.123535	0.974121	-4.270000	2.730000	-0.840000	535.00	-0.234739	-0.094093	0.00	0.00	0.00	0.00	0.00	0.00	0.00	0.00	0.00	0.00	0.00	0.00	0.00	0.00	0.00	0.00	0.123535	-0.085938	1.191895	39.410000	-171.360001	72.239998	0.00	0.000000	0.000000
1.65	7.00	8.75	9.50	12.75	4.50	6.50	0.50	2.25	1.25	0.50	0.00	0.50	1.00	0.75	0.00	0.00	-0.143555	0.125488	0.981445	-4.760000	2.940000	-1.260000	551.00	-0.227679	-0.091112	0.00	0.00	0.00	0.00	0.00	0.00	0.00	0.00	0.00	0.00	0.00	0.00	0.00	0.00	0.00	0.00	0.052734	-0.056641	1.204102	29.260000	-178.220001	70.419998	0.00	0.000000	0.000000
1.66	6.50	8.75	9.50	12.75	4.50	6.50	0.50	2.25	1.25	0.50	0.00	0.50	1.00	1.00	0.00	0.00	-0.139648	0.129883	0.982422	-5.040000	3.290000	-1.400000	549.00	-0.223884	-0.091881	0.00	0.00	0.00	0.00	0.00	0.00	0.00	0.00	0.00	0.00	0.00	0.00	0.00	0.00	0.00	0.00	-0.011719	-0.019531	1.209473	20.580000	-183.190002	68.180000	0.00	0.000000	0.000000
1.67	6.50	8.75	9.25	12.50	4.50	6.50	0.50	2.25	1.25	0.50	0.00	0.50	1.25	1.25	0.00	0.00	-0.143555	0.131348	0.981445	-5.530000	3.920000	-1.680000	547.00	-0.219696	-0.092502	0.00	0.00	0.00	0.00	0.00	0.00	0.00	0.00	0.00	0.00	0.00	0.00	0.00	0.00	0.00	0.00	-0.076172	0.027344	1.220215	14.140000	-186.270004	66.010002	0.00	0.000000	0.000000
1.68	6.50	9.00	9.25	12.25	4.75	6.25	0.50	2.50	1.75	0.50	0.25	0.50	1.25	1.25	0.00	0.00	-0.148926	0.125000	0.984863	-6.020000	4.410000	-1.820000	559.00	-0.211711	-0.088724	0.00	0.00	0.00	0.00	0.00	0.00	0.00	0.00	0.00	0.00	0.00	0.00	0.00	0.00	0.00	0.00	-0.125000	0.079102	1.250488	9.380000	-188.300003	64.610001	0.00	0.000000	0.000000
1.69	6.25	8.75	8.75	12.25	4.50	6.25	0.50	2.50	1.75	0.75	0.50	0.50	1.50	1.25	0.00	0.00	-0.149902	0.125488	0.976074	-6.090000	4.760000	-1.820000	554.00	-0.204801	-0.092402	0.00	0.00	0.00	0.00	0.00	0.00	0.00	0.00	0.00	0.00	0.00	0.00	0.00	0.00	0.00	0.00	-0.188965	0.112793	1.250000	4.690000	-189.350006	64.330002	0.00	0.000000	0.000000
1.70	6.00	8.75	8.75	12.00	4.50	6.25	0.50	2.50	2.25	1.00	0.25	0.50	1.25	1.75	0.00	0.25	-0.146484	0.130859	0.982422	-6.020000	5.180000	-2.030000	558.00	-0.194338	-0.085242	0.00	0.00	0.00	0.00	0.00	0.00	0.00	0.00	0.00	0.00	0.00	0.00	0.00	0.00	0.00	0.00	-0.272949	0.131836	1.215332	-0.840000	-188.229996	64.680000	0.00	0.000000	0.000000
1.71	6.00	9.00	8.75	12.00	4.50	6.25	0.50	2.50	2.25	1.00	0.50	0.75	1.50	1.75	0.00	0.25	-0.150391	0.125977	0.987305	-6.020000	5.740000	-2.310000	567.00	-0.190392	-0.087892	0.00	0.00	0.00	0.00	0.00	0.00	0.00	0.00	0.00	0.00	0.00	0.00	0.00	0.00	0.00	0.00	-0.391602	0.133301	1.148926	-7.770000	-183.190002	63.000000	0.00	0.000000	0.000000
1.72	6.00	8.75	8.75	11.75	5.00	6.00	0.75	2.50	2.75	1.25	0.50	0.75	1.50	2.50	0.25	0.25	-0.138184	0.120605	0.970215	-5.600000	5.950000	-2.450000	585.00	-0.172317	-0.075976	0.00	0.00	0.00	0.00	0.00	0.00	0.00	0.00	0.00	0.00	0.00	0.00	0.00	0.00	0.00	0.00	-0.510254	0.132324	1.111816	-14.350000	-173.669998	58.590000	0.00	0.000000	0.000000
1.73	5.75	8.50	8.50	11.50	5.00	5.75	0.75	2.50	3.50	1.25	0.75	0.75	1.50	3.25	0.50	0.25	-0.142090	0.115723	0.973145	-5.110000	6.370000	-2.730000	592.00	-0.153468	-0.068018	0.00	0.00	0.00	0.00	0.00	0.00	0.00	0.00	0.00	0.00	0.00	0.00	0.00	0.00	0.00	0.00	-0.739258	0.287598	1.337402	-14.980000	-155.399994	46.759998	0.00	0.000000	0.000000
1.74	5.50	8.00	8.00	11.25	5.25	5.75	0.75	2.50	4.00	1.75	0.75	0.75	1.50	3.25	0.50	0.50	-0.139648	0.121582	0.966797	-5.670000	7.700000	-3.640000	593.00	-0.140566	-0.064172	0.00	0.00	0.00	0.00	0.00	0.00	0.00	0.00	0.00	0.00	0.00	0.00	0.00	0.00	0.00	0.00	-0.739258	0.287598	1.337402	-14.980000	-155.399994	46.759998	0.00	0.000000	0.000000
1.75	5.50	7.25	7.75	10.75	5.25	5.75	0.75	2.75	4.25	2.00	1.00	1.00	1.50	3.75	0.50	0.50	-0.125977	0.147949	0.967773	-5.880000	9.100000	-4.480000	596.00	-0.125107	-0.061659	0.00	0.00	0.00	0.00	0.00	0.00	0.00	0.00	0.00	0.00	0.00	0.00	0.00	0.00	0.00	0.00	-1.152832	0.283203	1.362793	-8.610000	-175.699997	45.080002	0.00	0.000000	0.000000
1.76	5.00	7.25	7.00	10.50	5.25	5.50	1.00	3.00	4.50	2.50	1.00	1.00	1.50	4.00	0.50	0.50	-0.155762	0.121094	0.988281	-6.230000	11.060000	-5.110000	596.00	-0.111834	-0.060056	0.00	0.00	0.00	0.00	0.00	0.00	0.00	0.00	0.00	0.00	0.00	0.00	0.00	0.00	0.00	0.00	-1.152832	0.283203	1.362793	-8.610000	-175.699997	45.080002	0.00	0.000000	0.000000
1.77	5.00	6.50	6.25	9.25	5.25	5.00	1.00	3.00	5.00	3.00	1.00	1.25	2.25	4.75	0.50	0.50	-0.158203	0.121582	0.986328	-6.790000	13.160000	-5.390000	589.00	-0.086520	-0.053835	0.00	0.00	0.00	0.00	0.00	0.00	0.00	0.00	0.00	0.00	0.00	0.00	0.00	0.00	0.00	0.00	-1.821777	0.109863	0.745117	-31.360001	-181.369995	38.709999	0.00	0.000000	0.000000
1.78	5.00	6.00	6.00	8.75	5.25	4.75	1.00	3.00	5.75	3.50	1.75	1.50	3.00	5.00	0.50	0.50	-0.151367	0.121094	0.993164	-7.280000	14.840000	-5.880000	606.00	-0.064885	-0.050536	0.00	0.00	0.00	0.00	0.00	0.00	0.00	0.00	0.00	0.00	0.00	0.00	0.00	0.00	0.00	0.00	-2.134277	0.040527	0.496582	-42.000000	-157.289993	24.010000	0.00	0.000000	0.000000
1.79	4.50	5.25	5.50	8.75	5.00	4.75	1.00	3.00	7.25	3.75	2.50	1.50	3.25	5.25	0.75	1.00	-0.166504	0.123535	0.983887	-7.840000	16.170000	-6.300000	624.00	-0.037342	-0.044911	0.00	0.00	0.00	0.00	0.00	0.00	0.00	0.00	0.00	0.00	0.00	0.00	0.00	0.00	0.00	0.00	-2.310547	-0.003418	0.333496	-48.790001	-119.349998	2.870000	0.00	0.000000	0.000000
1.80	4.50	4.75	5.25	8.00	4.50	4.50	1.00	2.75	8.25	4.25	2.50	2.25	3.00	5.75	1.00	1.00	-0.170898	0.119629	1.000977	-9.240000	19.250000	-7.420000	627.00	-0.015434	-0.033913	0.00	0.00	0.00	0.00	0.00	0.00	0.00	0.00	0.00	0.00	0.00	0.00	0.00	0.00	0.00	0.00	-2.387695	-0.011719	0.242188	-51.939999	-77.279999	-18.760000	0.00	0.000000	0.000000
1.81	4.00	4.50	4.75	7.25	4.50	4.25	1.00	2.50	9.75	4.25	2.75	2.25	3.00	7.25	1.25	1.25	-0.168945	0.110352	1.000488	-9.450000	20.719999	-7.770000	637.00	0.013280	-0.018846	0.00	0.00	0.00	0.00	0.00	0.00	0.00	0.00	0.00	0.00	0.00	0.00	0.00	0.00	0.00	0.00	-2.412109	-0.048340	0.186523	-54.389999	-36.119999	-36.889999	0.00	0.000000	0.000000
1.82	4.00	4.00	4.50	6.25	4.50	4.25	1.00	2.50	11.00	5.00	3.50	2.25	3.25	7.75	1.50	1.75	-0.159668	0.125488	1.009766	-9.800000	22.820000	-8.540000	661.00	0.037525	-0.010236	0.00	0.00	0.00	0.00	0.00	0.00	0.00	0.00	0.00	0.00	0.00	0.00	0.00	0.00	0.00	0.00	-2.402344	-0.083496	0.217773	-58.099998	3.500000	-50.680000	0.00	0.000000	0.000000
1.83	3.50	3.75	4.00	5.00	4.25	4.00	1.00	2.25	12.25	5.25	3.75	2.50	3.25	8.50	1.50	2.75	-0.186035	0.122559	1.012207	-10.430000	25.969999	-9.870000	661.00	0.064994	0.000096	0.00	0.00	0.00	0.00	0.00	0.00	0.00	0.00	0.00	0.00	0.00	0.00	0.00	0.00	0.00	0.00	-2.327148	-0.076660	0.268066	-61.740002	39.549999	-59.779999	0.00	0.000000	0.000000
1.84	3.50	3.50	3.50	4.50	3.75	2.75	1.00	1.75	13.25	5.75	3.75	3.00	3.25	9.50	2.50	3.25	-0.177246	0.126465	1.025879	-11.130000	30.450001	-11.760000	666.00	0.093904	0.013324	0.00	0.00	0.00	0.00	0.00	0.00	0.00	0.00	0.00	0.00	0.00	0.00	0.00	0.00	0.00	0.00	-2.190430	-0.056152	0.377930	-63.700001	69.440002	-63.700001	0.00	0.000000	0.000000
1.85	3.50	3.50	3.25	3.75	2.50	2.00	0.75	1.50	14.00	6.50	4.00	3.50	3.00	10.25	2.50	3.25	-0.191406	0.136230	1.036133	-13.300000	37.590000	-15.260000	656.00	0.115069	0.023318	0.00	0.00	0.00	0.00	0.00	0.00	0.00	0.00	0.00	0.00	0.00	0.00	0.00	0.00	0.00	0.00	-1.833984	0.185547	0.568359	-60.830002	90.370003	-62.860001	0.00	0.000000	0.000000
1.86	1.25	3.25	2.50	3.50	1.75	1.25	0.50	1.25	14.25	7.00	4.00	3.50	2.75	11.00	3.00	3.75	-0.204590	0.128418	1.056641	-17.150000	46.619999	-19.110001	619.00	0.155659	0.027776	0.00	0.00	0.00	0.00	0.00	0.00	0.00	0.00	0.00	0.00	0.00	0.00	0.00	0.00	0.00	0.00	-0.391602	0.314453	0.926270	-115.849998	175.350006	-73.150002	0.00	0.000000	0.000000
1.87	2.25	2.50	2.00	3.00	1.25	1.00	0.25	1.00	14.50	7.75	4.00	3.50	2.75	11.75	3.25	3.75	-0.205078	0.129395	1.078125	-21.350000	57.610001	-22.610001	616.00	0.169849	0.037263	0.00	0.00	0.00	0.00	0.00	0.00	0.00	0.00	0.00	0.00	0.00	0.00	0.00	0.00	0.00	0.00	1.969238	0.791016	1.349121	-121.730003	169.259995	-71.610001	0.00	0.000000	0.000000
1.88	1.50	2.25	1.25	2.25	1.00	0.75	0.25	0.75	14.25	7.75	4.25	3.50	2.50	12.50	3.50	3.75	-0.235840	0.153809	1.188965	-22.820000	77.559998	-26.460001	589.00	0.197238	0.044310	0.25	1.00	0.75	1.75	0.00	0.00	0.00	0.00	0.00	0.00	0.00	0.00	0.00	0.00	0.00	0.00	0.604004	0.441895	1.134277	-94.150002	124.739998	-39.970001	36.00	0.000000	0.000000
1.89	0.75	1.75	1.25	1.50	0.75	0.50	0.25	0.50	14.25	8.50	4.00	3.25	2.00	12.75	3.50	3.75	-0.228027	0.112793	1.156250	-22.260000	104.580002	-30.730000	562.00	0.221529	0.059150	1.50	4.25	3.50	6.25	0.00	0.00	0.00	0.00	0.00	0.00	0.00	0.00	0.00	0.00	0.00	0.00	-0.237793	0.535645	0.685547	-36.540001	134.050003	-4.200000	148.00	-0.324452	-0.103150
1.90	0.50	1.00	1.25	1.00	0.50	0.50	0.00	0.50	13.75	8.50	4.00	3.00	1.75	13.75	3.75	3.50	-0.260742	0.140625	1.175293	-25.690001	127.330002	-34.299999	541.00	0.242105	0.066073	5.25	6.00	6.75	9.25	0.00	0.00	0.00	0.00	0.00	0.00	0.00	0.00	0.00	0.00	0.00	0.00	-0.500488	-0.308594	1.201660	-25.270000	196.070007	7.910000	262.00	-0.328627	-0.067563
1.91	0.50	1.00	0.75	1.00	0.50	0.50	0.00	0.25	13.25	8.50	3.75	2.50	1.50	13.75	3.75	3.25	-0.283203	0.160156	1.212891	-33.810001	148.330002	-39.970001	516.00	0.249084	0.073710	7.00	7.25	9.25	14.25	0.25	4.25	0.00	0.25	0.00	0.00	0.00	0.00	0.00	0.00	0.00	0.00	-1.041016	0.219238	2.833008	8.120000	256.760010	6.510000	413.00	-0.303015	-0.095386
1.92	0.25	1.25	0.75	0.50	0.25	0.25	0.00	0.25	12.75	8.50	3.75	2.25	1.25	14.25	3.50	2.75	-0.348145	0.175293	1.245605	-65.379997	195.160004	-55.299999	494.00	0.259148	0.082441	7.00	7.75	11.00	16.50	2.50	7.00	0.00	0.50	0.00	0.00	0.00	0.25	0.25	0.00	0.00	0.00	-1.006836	-0.036621	2.970703	-53.410000	146.089996	0.350000	515.00	-0.279982	-0.102139
1.93	0.25	1.00	0.50	0.00	0.25	0.00	0.00	0.00	12.50	8.50	3.50	1.75	0.75	14.25	3.25	2.00	-0.348145	0.175293	1.245605	-65.379997	195.160004	-55.299999	458.00	0.275381	0.105064	7.25	7.75	12.00	17.50	3.50	9.00	0.00	1.25	0.00	0.00	0.00	0.50	0.25	0.00	0.00	0.00	-0.539062	0.059082	1.475098	-25.690001	24.080000	2.170000	581.00	-0.266471	-0.109062
1.94	0.00	0.75	0.00	0.00	0.25	0.00	0.00	0.00	12.00	8.25	3.00	1.25	0.50	13.75	3.00	1.50	-0.400391	0.166992	1.284180	-85.889999	219.589996	-64.120003	420.00	0.289046	0.117140	7.25	7.25	12.00	17.50	4.25	9.00	0.00	1.50	0.00	0.00	0.00	0.50	0.25	0.00	0.00	0.00	-0.196289	0.251465	1.033203	-18.340000	16.590000	3.570000	588.00	-0.262082	-0.108142
1.95	0.00	0.75	0.00	0.00	0.00	0.00	0.00	0.00	11.50	8.00	2.50	0.75	0.00	13.50	2.50	0.75	-0.424805	0.179199	1.349609	-107.379997	244.860001	-72.800003	385.00	0.292810	0.135874	7.00	7.25	11.50	17.00	4.50	9.50	0.00	2.00	0.00	0.00	0.00	0.50	0.25	0.00	0.00	0.00	-0.064453	0.179688	1.056641	-16.590000	22.469999	8.750000	590.00	-0.256814	-0.113743
1.96	0.00	0.75	0.00	0.00	0.00	0.00	0.00	0.00	11.00	7.75	1.75	0.50	0.00	13.00	2.00	0.25	-0.496094	0.307617	1.445801	-137.059998	285.040009	-91.489998	355.00	0.292359	0.147711	7.00	6.75	11.00	16.25	5.00	9.50	0.00	2.50	0.00	0.00	0.00	0.50	0.50	0.00	0.00	0.00	-0.095215	0.031738	0.993164	-8.470000	13.860000	9.520000	587.00	-0.249726	-0.116687
1.97	0.00	0.75	0.00	0.00	0.00	0.00	0.00	0.00	10.50	7.25	1.25	0.25	0.00	12.50	1.50	0.00	-0.496094	0.307617	1.445801	-137.059998	285.040009	-91.489998	327.00	0.291974	0.158532	6.75	6.50	10.75	16.50	5.00	10.00	0.00	3.00	0.00	0.00	0.00	0.75	0.50	0.00	0.00	0.00	-0.229004	0.139160	1.036621	13.230000	-7.210000	8.470000	597.00	-0.243183	-0.123976
1.98	0.00	0.50	0.00	0.00	0.00	0.00	0.00	0.00	9.75	7.00	1.25	0.25	0.00	11.25	1.00	0.00	-0.590820	0.386719	1.458984	-137.270004	299.179993	-107.449997	299.00	0.292616	0.161342	6.75	6.75	11.00	17.00	5.50	11.00	0.00	3.50	0.00	0.00	0.00	0.50	0.50	0.00	0.00	0.25	-0.229004	0.139160	1.036621	13.230000	-7.210000	8.470000	627.00	-0.239802	-0.127624
1.99	0.00	0.25	0.00	0.00	0.00	0.00	0.00	0.00	8.25	6.50	1.00	0.00	0.00	9.75	0.75	0.00	-0.703125	0.394043	1.699219	-142.520004	325.989990	-145.600006	256.00	0.296804	0.166376	6.75	6.75	11.00	17.50	5.50	11.25	0.00	4.00	0.00	0.00	0.00	0.50	0.75	0.00	0.00	0.25	-0.179688	0.166992	0.991211	18.059999	-10.360000	10.570000	643.00	-0.236110	-0.132834
2.00	0.00	0.25	0.00	0.00	0.00	0.00	0.00	0.00	7.25	5.75	1.00	0.00	0.00	8.50	0.50	0.00	-0.864258	0.455078	2.185059	-140.839996	329.279999	-159.250000	224.00	0.294500	0.166047	6.75	7.25	11.50	17.75	5.50	11.50	0.00	4.75	0.00	0.00	0.00	0.75	0.75	0.00	0.00	0.25	-0.157715	0.149902	1.005371	18.480000	-11.900000	10.850000	671.00	-0.232266	-0.136828
2.01	0.00	0.50	0.00	0.00	0.00	0.00	0.00	0.00	5.75	5.00	0.75	0.25	0.00	7.25	0.00	0.00	-0.964355	0.578125	2.432617	-137.270004	320.950012	-171.220001	187.00	0.282837	0.159224	6.75	7.25	11.25	18.00	5.50	12.25	0.00	5.75	0.00	0.00	0.00	0.75	1.50	0.00	0.00	0.25	-0.158691	0.174805	0.995605	17.360001	-12.180000	10.640000	698.00	-0.223662	-0.147293
2.02	0.00	0.50	0.00	0.00	0.00	0.00	0.00	0.00	5.00	4.50	0.50	0.00	0.00	5.25	0.00	0.25	-0.926270	0.690918	2.555176	-147.139999	312.339996	-184.800003	154.00	0.275172	0.161150	6.75	8.00	11.50	18.75	5.75	12.25	0.00	6.25	0.00	0.00	0.25	0.75	1.75	0.00	0.00	0.25	-0.158691	0.174805	0.995605	17.360001	-12.180000	10.640000	728.00	-0.221230	-0.149802
2.03	0.00	0.50	0.00	0.00	0.00	0.00	0.00	0.00	4.25	3.75	0.50	0.00	0.00	3.75	0.00	0.25	-0.532715	0.656738	2.200195	-175.910004	304.360016	-200.270004	126.00	0.265661	0.157038	6.25	8.25	11.25	19.00	5.75	12.75	0.25	6.75	0.00	0.00	0.00	0.75	1.75	0.00	0.00	0.25	-0.128418	0.183105	0.960449	16.870001	-10.990000	10.220000	738.00	-0.218287	-0.153954
2.04	0.00	0.75	0.00	0.00	0.00	0.00	0.00	0.00	3.25	2.75	0.50	0.00	0.00	1.75	0.00	0.00	-0.077148	0.613770	1.983887	-229.389999	287.630005	-210.490005	90.00	0.226654	0.146625	7.00	8.25	11.25	18.75	5.75	12.75	0.25	7.00	0.00	0.00	0.25	0.75	2.25	0.00	0.00	0.25	-0.140137	0.198242	0.978516	9.380000	-7.070000	7.630000	753.00	-0.215384	-0.153847
2.05	0.00	0.50	0.00	0.00	0.00	0.00	0.00	0.00	2.00	1.50	0.00	0.00	0.00	0.75	0.00	0.00	0.270996	0.757812	1.804688	-290.850006	259.140015	-200.479996	48.00	0.000000	0.000000	7.00	8.25	11.25	18.75	6.00	12.50	0.25	7.00	0.00	0.00	0.25	0.75	2.25	0.00	0.00	0.25	-0.125488	0.194824	0.966797	4.060000	-3.640000	6.020000	753.00	-0.215292	-0.152737
2.06	0.00	0.00	0.00	0.00	0.00	0.00	0.00	0.00	1.25	0.75	0.00	0.00	0.00	0.50	0.00	0.00	0.505859	2.607910	1.338379	-338.239990	213.500000	-142.100006	26.00	0.000000	0.000000	7.00	8.25	11.25	18.75	6.00	12.75	0.25	7.00	0.00	0.00	0.25	0.75	2.25	0.00	0.00	0.25	-0.134277	0.192383	1.007812	-1.260000	-1.050000	4.200000	755.00	-0.215085	-0.153132
2.07	0.00	0.00	0.00	0.00	0.00	0.00	0.00	0.00	0.75	0.50	0.00	0.00	0.00	0.25	0.00	0.00	-0.135254	2.297363	2.966797	-231.630005	142.520004	-12.180000	16.00	0.000000	0.000000	6.75	8.25	11.25	18.50	6.00	12.75	0.25	7.00	0.00	0.00	0.00	1.00	2.25	0.00	0.25	0.50	-0.145020	0.186523	1.016602	-4.970000	-0.070000	2.660000	754.00	-0.211350	-0.154327
2.08	0.00	0.00	0.00	0.00	0.00	0.00	0.00	0.00	0.50	0.00	0.00	0.00	0.00	0.25	0.00	0.00	0.387207	2.146484	2.421387	-79.590004	24.710001	101.639999	8.00	0.000000	0.000000	6.75	8.00	11.00	17.75	6.00	12.50	0.25	6.75	0.00	0.00	0.25	1.00	2.25	0.00	0.00	0.25	-0.147949	0.173828	1.017578	-6.090000	0.560000	2.030000	735.00	-0.212516	-0.152733
2.09	0.00	0.00	0.00	0.00	0.00	0.00	0.00	0.00	0.50	0.00	0.00	0.00	0.00	0.25	0.00	0.00	0.397461	1.279785	1.367676	-24.360001	-63.910000	177.660004	8.00	0.000000	0.000000	7.00	8.00	10.75	17.50	6.00	12.00	0.25	6.75	0.00	0.00	0.25	1.00	2.25	0.00	0.00	0.50	-0.152832	0.172363	1.011230	-5.950000	0.980000	2.100000	728.00	-0.212121	-0.151937
2.10	0.00	0.00	0.00	0.00	0.00	0.00	0.00	0.00	0.75	0.00	0.00	0.00	0.00	0.00	0.00	0.00	0.231445	0.695312	0.910645	-37.730000	-93.940002	215.529999	9.00	0.000000	0.000000	7.00	7.75	10.50	17.00	5.75	11.75	0.25	6.50	0.00	0.00	0.25	1.00	2.25	0.00	0.00	0.50	-0.143066	0.175781	0.990723	-5.880000	1.610000	2.170000	710.00	-0.212285	-0.151403
2.11	0.00	0.25	0.00	0.00	0.00	0.00	0.00	0.00	0.50	0.00	0.00	0.00	0.00	0.25	0.00	0.00	0.167480	0.552734	0.721680	-61.459999	-93.800003	222.880005	10.00	0.000000	0.000000	7.00	7.25	10.50	16.75	5.50	11.50	0.25	6.25	0.00	0.00	0.25	1.00	2.00	0.00	0.00	0.50	-0.146484	0.169434	0.989746	-6.020000	1.680000	2.100000	693.00	-0.213404	-0.149283
2.12	0.00	0.25	0.00	0.00	0.00	0.00	0.00	0.00	0.00	0.00	0.00	0.00	0.00	0.00	0.00	0.00	0.264160	0.620605	0.747070	-18.059999	-97.930000	191.240005	2.00	0.000000	0.000000	7.00	7.25	10.25	16.25	5.50	11.25	0.25	6.25	0.00	0.00	0.25	1.00	2.00	0.00	0.25	0.25	-0.140137	0.172363	0.986816	-6.090000	1.540000	1.820000	684.00	-0.211745	-0.148634
2.13	0.00	0.50	0.00	0.00	0.00	0.00	0.00	0.00	0.00	0.00	0.00	0.00	0.00	0.00	0.00	0.00	0.264160	0.620605	0.747070	-18.059999	-97.930000	191.240005	4.00	0.000000	0.000000	6.75	6.75	10.00	16.00	5.50	11.00	0.25	5.75	0.00	0.00	0.25	1.00	2.00	0.00	0.25	0.25	-0.141113	0.170898	0.983887	-5.670000	1.260000	1.680000	663.00	-0.211581	-0.147053
2.14	0.00	0.00	0.00	0.00	0.00	0.00	0.00	0.00	0.00	0.00	0.00	0.00	0.00	0.00	0.00	0.00	0.245117	0.527344	0.784668	44.029999	-107.449997	166.110001	0.00	0.000000	0.000000	6.25	6.75	9.75	15.50	5.25	10.75	0.25	5.75	0.00	0.00	0.25	0.75	1.75	0.00	0.00	0.25	-0.135742	0.165039	0.983398	-5.110000	0.770000	1.540000	639.00	-0.215035	-0.148313
2.15	0.00	0.00	0.00	0.00	0.00	0.00	0.00	0.00	0.00	0.00	0.00	0.00	0.00	0.00	0.00	0.00	0.258789	0.374512	0.770508	101.080002	-117.250000	141.190002	0.00	0.000000	0.000000	6.00	6.50	9.75	15.00	5.00	10.50	0.25	5.25	0.00	0.00	0.25	0.75	2.00	0.00	0.00	0.25	-0.139648	0.164551	0.973633	-4.480000	0.000000	1.540000	620.00	-0.214697	-0.147240
2.16	0.00	0.00	0.00	0.00	0.00	0.00	0.00	0.00	0.00	0.00	0.00	0.00	0.00	0.00	0.00	0.00	0.246094	0.181641	0.828125	150.220001	-133.979996	103.809998	0.00	0.000000	0.000000	5.50	6.25	9.50	14.75	5.00	10.50	0.25	4.75	0.00	0.00	0.25	1.00	2.00	0.00	0.25	0.50	-0.144043	0.162109	0.984375	-3.500000	-0.910000	1.680000	607.00	-0.208985	-0.147716
2.17	0.00	0.25	0.00	0.00	0.00	0.00	0.00	0.00	0.00	0.00	0.00	0.00	0.00	0.00	0.00	0.00	0.249512	0.145020	0.925781	144.550003	-144.199997	93.029999	2.00	0.000000	0.000000	5.50	6.25	9.25	14.50	5.00	10.25	0.25	4.75	0.00	0.00	0.25	1.00	1.75	0.00	0.00	0.25	-0.144531	0.157715	0.978516	-2.310000	-1.680000	1.820000	594.00	-0.213624	-0.146747
2.18	0.00	0.00	0.00	0.00	0.00	0.00	0.00	0.00	0.00	0.00	0.00	0.00	0.00	0.00	0.00	0.00	0.234375	0.184570	1.044434	131.669998	-159.600006	87.639999	0.00	0.000000	0.000000	5.50	6.25	9.25	14.50	5.00	10.25	0.25	4.75	0.00	0.00	0.00	1.25	1.75	0.00	0.25	0.25	-0.143555	0.162598	0.984863	-1.610000	-2.450000	2.030000	596.00	-0.211163	-0.147211
2.19	0.00	0.00	0.00	0.00	0.00	0.00	0.00	0.00	0.00	0.00	0.00	0.00	0.00	0.00	0.00	0.00	0.217285	0.215332	1.111816	120.120003	-180.110001	87.709999	0.00	0.000000	0.000000	5.25	6.25	9.25	14.25	4.50	10.00	0.25	4.75	0.00	0.00	0.25	1.25	2.00	0.00	0.00	0.50	-0.135254	0.164062	0.977051	-1.120000	-3.010000	2.100000	587.00	-0.209298	-0.150725
2.20	0.00	0.50	0.00	0.00	0.00	0.00	0.00	0.00	0.00	0.00	0.00	0.00	0.00	0.00	0.00	0.00	0.174316	0.219238	1.136230	113.330002	-200.759995	91.840004	4.00	0.000000	0.000000	5.25	6.00	9.25	14.25	4.50	10.00	0.25	4.75	0.00	0.00	0.25	1.25	2.00	0.00	0.00	0.50	-0.140625	0.161133	0.981934	-0.840000	-3.500000	2.240000	585.00	-0.208552	-0.150669
2.21	0.00	0.25	0.00	0.00	0.00	0.00	0.00	0.00	0.00	0.00	0.00	0.00	0.00	0.00	0.00	0.00	0.119141	0.216797	1.133789	111.440002	-217.630005	97.510002	2.00	0.000000	0.000000	5.50	6.25	9.25	14.50	5.00	10.00	0.25	4.75	0.25	0.00	0.25	1.25	2.00	0.00	0.00	0.50	-0.144043	0.165039	0.979004	-0.770000	-4.480000	2.240000	600.00	-0.207364	-0.146114
2.22	0.00	0.00	0.00	0.00	0.00	0.00	0.00	0.00	0.00	0.00	0.00	0.00	0.00	0.00	0.00	0.00	0.076660	0.214355	1.140137	114.309998	-229.600006	103.250000	0.00	0.000000	0.000000	5.50	6.25	9.25	14.25	5.00	10.00	0.25	4.75	0.25	0.25	0.25	1.25	2.00	0.00	0.00	0.50	-0.141113	0.165527	0.979492	-0.630000	-5.320000	2.310000	600.00	-0.205252	-0.144952
2.23	0.00	0.25	0.00	0.00	0.00	0.00	0.00	0.00	0.00	0.00	0.00	0.00	0.00	0.00	0.00	0.00	0.026855	0.201660	1.174316	120.540001	-237.160004	108.570000	2.00	0.000000	0.000000	5.50	6.00	9.25	14.00	5.00	10.00	0.25	4.75	0.00	0.00	0.25	1.00	2.00	0.00	0.25	0.50	-0.144531	0.168457	0.982910	-0.770000	-6.160000	2.310000	590.00	-0.207475	-0.146635
2.24	0.00	0.00	0.00	0.00	0.00	0.00	0.00	0.00	0.00	0.00	0.00	0.00	0.00	0.00	0.00	0.00	-0.020020	0.190430	1.258789	127.540001	-242.059998	113.050003	0.00	0.000000	0.000000	5.25	6.25	9.25	14.25	5.00	10.00	0.25	4.75	0.25	0.25	0.25	1.00	2.25	0.00	0.25	0.50	-0.138184	0.172363	0.979004	-1.330000	-6.510000	2.170000	599.00	-0.202423	-0.146151
2.25	0.00	0.25	0.00	0.00	0.00	0.00	0.00	0.00	0.00	0.00	0.00	0.00	0.00	0.00	0.00	0.00	-0.062500	0.189941	1.329102	132.789993	-247.100006	116.830002	2.00	0.000000	0.000000	5.25	6.25	9.25	14.25	5.25	10.00	0.25	4.75	0.25	0.25	0.50	1.25	2.25	0.00	0.25	0.50	-0.131348	0.168945	0.976074	-3.850000	-6.510000	1.540000	607.00	-0.198776	-0.145766
2.26	0.00	0.00	0.00	0.00	0.00	0.00	0.00	0.00	0.00	0.00	0.00	0.00	0.00	0.00	0.00	0.00	-0.123047	0.193848	1.428223	135.520004	-253.680008	120.680000	0.00	0.000000	0.000000	5.25	6.25	9.25	14.25	5.25	10.00	0.25	4.25	0.25	0.25	0.50	1.50	2.25	0.00	0.25	0.75	-0.131348	0.168945	0.976074	-3.850000	-6.510000	1.540000	603.00	-0.198137	-0.143875
2.27	0.00	0.00	0.00	0.00	0.00	0.00	0.00	0.00	0.00	0.00	0.00	0.00	0.00	0.00	0.00	0.00	-0.175781	0.233398	1.521973	135.660004	-260.540009	124.529999	0.00	0.000000	0.000000	5.50	6.25	9.25	14.00	5.50	9.75	0.25	4.25	0.25	0.25	0.50	1.50	2.25	0.00	0.25	0.75	-0.136230	0.176758	0.986816	-5.180000	-6.160000	1.050000	603.00	-0.198456	-0.141160
2.28	0.00	0.75	0.00	0.00	0.00	0.00	0.00	0.00	0.00	0.00	0.00	0.00	0.00	0.00	0.00	0.00	-0.244141	0.260742	1.599609	133.630005	-267.610016	129.080002	6.00	0.000000	0.000000	5.50	6.00	9.25	14.00	5.50	9.75	0.25	4.25	0.00	0.25	0.75	1.50	2.25	0.00	0.25	1.00	-0.139160	0.160645	0.989258	-5.460000	-5.600000	0.560000	602.00	-0.197107	-0.143396
2.29	0.00	0.75	0.00	0.00	0.00	0.00	0.00	0.00	0.00	0.00	0.00	0.00	0.00	0.00	0.00	0.00	-0.316895	0.299316	1.655273	129.289993	-274.049988	134.680008	6.00	0.000000	0.000000	5.50	6.00	9.25	14.00	5.50	9.75	0.25	4.25	0.25	0.25	0.50	1.75	2.25	0.00	0.25	1.00	-0.147949	0.153809	0.993164	-2.450000	-4.130000	0.280000	605.00	-0.194917	-0.142043
2.30	0.00	0.00	0.00	0.00	0.00	0.00	0.00	0.00	0.00	0.00	0.00	0.00	0.00	0.00	0.00	0.00	-0.401855	0.354004	1.716309	123.270004	-278.250000	141.889999	0.00	0.000000	0.000000	6.00	6.00	9.25	13.75	5.50	9.75	0.25	4.25	0.25	0.50	0.50	1.75	2.50	0.00	0.50	1.00	-0.147949	0.153809	0.993164	-2.450000	-4.130000	0.280000	614.00	-0.190906	-0.139775
2.31	0.00	0.00	0.00	0.00	0.00	0.00	0.00	0.00	0.00	0.00	0.00	0.00	0.00	0.00	0.00	0.00	-0.495117	0.422852	1.800781	116.270004	-279.369995	152.039993	0.00	0.000000	0.000000	5.50	5.75	9.00	13.00	5.50	9.50	0.25	4.25	0.25	0.50	0.75	2.00	3.00	0.00	0.50	1.25	-0.152344	0.164551	0.996582	0.070000	-3.780000	0.560000	604.00	-0.180333	-0.143999
2.32	0.00	0.00	0.00	0.00	0.00	0.00	0.00	0.00	0.00	0.00	0.00	0.00	0.00	0.00	0.00	0.00	-0.865723	0.486328	1.970215	111.090004	-278.179993	178.009995	0.00	0.000000	0.000000	6.00	5.75	9.00	12.50	5.50	9.50	0.25	4.75	0.25	0.50	0.75	2.25	3.00	0.00	0.50	1.25	-0.143555	0.164062	0.985352	3.640000	-3.430000	0.210000	614.00	-0.177742	-0.144791
2.33	0.00	0.50	0.00	0.00	0.00	0.00	0.00	0.00	0.00	0.00	0.00	0.00	0.00	0.00	0.00	0.00	-1.105957	0.447266	2.038086	111.300003	-277.549988	193.339996	4.00	0.000000	0.000000	6.00	5.50	9.00	12.50	5.50	9.50	0.25	4.75	0.25	0.50	0.75	2.25	3.75	0.00	0.50	1.50	-0.145996	0.164062	0.973145	3.430000	-3.500000	-0.280000	619.00	-0.172485	-0.148123
2.34	0.00	0.00	0.00	0.00	0.00	0.00	0.00	0.00	0.00	0.00	0.00	0.00	0.00	0.00	0.00	0.00	-1.424316	0.341309	2.017090	103.320000	-275.029999	211.259995	0.00	0.000000	0.000000	5.50	5.25	8.75	12.50	5.75	9.25	0.25	5.25	0.50	0.50	0.75	2.50	4.00	0.00	0.50	1.50	-0.139648	0.173828	0.979492	2.380000	-3.780000	-0.700000	624.00	-0.163007	-0.151905
2.35	0.00	0.25	0.00	0.00	0.00	0.00	0.00	0.00	0.00	0.00	0.00	0.00	0.00	0.00	0.00	0.00	-1.844238	0.163574	1.922852	80.500000	-268.940002	228.479996	2.00	0.000000	0.000000	5.50	5.75	9.00	12.25	6.00	9.50	0.50	5.75	0.50	0.75	0.75	2.50	4.00	0.00	0.50	1.50	-0.130371	0.172852	0.969238	0.420000	-4.200000	-1.050000	646.00	-0.159971	-0.150057
2.36	0.00	0.00	0.00	0.00	0.00	0.00	0.00	0.00	0.00	0.00	0.00	0.00	0.00	0.00	0.00	0.00	-2.321289	-0.062988	1.712402	46.480000	-257.950012	240.240005	0.00	0.000000	0.000000	5.50	5.75	9.00	12.25	6.25	9.50	0.50	5.75	0.50	0.75	1.00	2.75	4.50	0.00	0.50	1.75	-0.120605	0.178711	0.972656	-2.730000	-3.850000	-1.890000	658.00	-0.154100	-0.151857
2.37	0.00	0.00	0.00	0.00	0.00	0.00	0.00	0.00	0.00	0.00	0.00	0.00	0.00	0.00	0.00	0.00	-2.790039	-0.248535	1.423340	9.730000	-242.619995	241.149994	0.00	0.000000	0.000000	5.50	5.50	9.25	11.25	6.50	9.25	0.50	5.75	0.75	1.50	1.00	2.75	4.75	0.00	0.50	2.00	-0.120605	0.182129	0.965332	-6.860000	-2.100000	-3.080000	662.00	-0.143517	-0.145497
2.38	0.00	0.00	0.00	0.00	0.00	0.00	0.00	0.00	0.00	0.00	0.00	0.00	0.00	0.00	0.00	0.00	-3.227539	-0.447754	1.043457	-17.360001	-219.800003	231.210007	0.00	0.000000	0.000000	5.50	5.50	9.25	11.25	7.00	9.25	0.50	5.75	1.25	2.00	1.50	3.00	4.75	0.25	0.75	2.25	-0.134766	0.177246	0.995605	-10.080000	0.840000	-4.480000	691.00	-0.129073	-0.138400
2.39	0.00	0.00	0.00	0.00	0.00	0.00	0.00	0.00	0.25	0.00	0.00	0.00	0.00	0.00	0.00	0.00	-3.646484	-0.664551	0.730469	-28.700001	-187.529999	208.389999	3.00	0.000000	0.000000	5.25	5.00	9.00	10.75	7.00	9.25	0.50	5.75	1.75	2.25	2.25	3.25	4.75	0.50	1.00	2.50	-0.124512	0.179688	1.006836	-11.480000	5.390000	-5.740000	700.00	-0.111194	-0.134610
2.40	0.00	0.00	0.00	0.00	0.00	0.00	0.00	0.00	0.00	0.00	0.00	0.00	0.00	0.00	0.00	0.00	-4.119629	-0.883789	0.401367	-31.570000	-147.910004	169.610001	0.00	0.000000	0.000000	5.00	4.25	8.75	9.75	6.75	8.75	0.50	5.75	3.00	3.25	2.50	3.50	5.00	0.50	1.25	3.25	-0.132324	0.181641	1.038086	-12.040000	11.550000	-7.070000	709.00	-0.084353	-0.125266
2.41	0.00	0.00	0.00	0.00	0.00	0.00	0.00	0.00	0.00	0.00	0.00	0.00	0.00	0.00	0.00	0.00	-4.335449	-0.974121	0.075195	-36.540001	-102.340004	119.349998	0.00	0.000000	0.000000	4.25	4.00	8.00	8.75	6.25	7.25	0.50	5.25	4.50	4.00	3.00	3.75	5.00	0.50	1.75	3.75	-0.152832	0.174805	1.057129	-12.810000	19.180000	-8.400000	695.00	-0.053805	-0.112601
2.42	0.00	0.00	0.00	0.00	0.00	0.00	0.00	0.00	0.00	0.00	0.00	0.00	0.00	0.00	0.00	0.00	-4.272461	-0.879883	-0.138672	-47.110001	-52.920002	73.150002	0.00	0.000000	0.000000	3.75	3.50	6.75	7.25	5.75	6.50	0.50	4.75	5.50	4.75	3.75	4.25	5.00	1.25	2.25	4.25	-0.166992	0.174316	1.088867	-13.510000	27.299999	-10.080000	683.00	-0.016770	-0.102518
2.43	0.00	0.00	0.00	0.00	0.00	0.00	0.00	0.00	0.00	0.00	0.00	0.00	0.00	0.00	0.00	0.00	-5.731445	-0.948730	-0.329102	-86.449997	-6.650000	30.520000	0.00	0.000000	0.000000	3.25	2.50	5.00	6.25	5.25	5.25	0.50	4.00	6.25	5.50	4.25	4.25	4.75	2.00	3.00	5.00	-0.171875	0.202637	1.108887	-13.510000	36.119999	-12.670000	650.00	0.024209	-0.090402
2.44	0.00	0.00	0.00	0.00	0.00	0.00	0.00	0.00	0.00	0.00	0.00	0.00	0.00	0.00	0.00	0.00	-4.566895	-1.013184	-0.496582	-147.279999	115.989998	-26.180000	0.00	0.000000	0.000000	1.75	1.75	4.25	4.75	3.75	4.25	0.25	3.50	7.25	6.25	4.75	4.25	4.50	3.25	3.50	5.50	-0.157227	0.239258	1.134766	-13.930000	48.160000	-17.780001	610.00	0.075543	-0.079014
2.45	0.00	0.50	0.00	0.50	0.00	0.00	0.00	0.00	0.00	0.00	0.00	0.00	0.00	0.00	0.00	0.00	-1.850586	0.063477	-0.048340	-169.539993	220.570007	-84.910004	9.00	0.000000	0.000000	1.00	1.00	2.25	3.25	2.25	2.75	0.00	2.75	8.50	6.75	5.00	4.50	4.25	4.00	3.75	6.75	-0.160156	0.249023	1.219727	-14.700000	65.379997	-26.670000	554.00	0.138322	-0.066299
2.46	0.75	2.00	0.50	2.00	0.00	0.00	0.00	0.00	0.00	0.00	0.00	0.00	0.00	0.00	0.00	0.00	-0.264160	1.000000	1.729004	-208.600006	273.209991	-86.660004	49.00	0.000000	0.000000	0.75	0.00	1.50	2.00	1.25	1.75	0.00	2.00	9.25	6.50	5.00	4.75	4.00	4.75	4.00	7.25	-0.247559	0.341309	1.386230	-9.870000	97.790001	-39.410000	511.00	0.187725	-0.048381
2.47	3.00	4.25	0.75	3.75	0.00	0.00	0.00	0.00	0.00	0.00	0.00	0.00	0.00	0.00	0.00	0.00	0.343750	0.955566	2.147461	-210.210007	221.759995	-44.099998	109.00	-0.358293	-0.097116	0.00	0.00	0.75	1.00	0.25	1.00	0.00	1.25	9.50	6.75	4.75	4.50	3.75	5.25	4.25	6.75	-0.207031	0.306152	1.527832	-15.540000	159.669998	-50.610001	460.00	0.234242	-0.030926
2.48	4.50	7.75	1.50	6.75	0.00	0.00	0.00	0.00	0.00	0.00	0.00	0.00	0.00	0.00	0.00	0.00	-0.095215	-0.231934	0.484375	-23.100000	175.419998	65.169998	191.00	-0.355790	-0.105121	0.00	0.00	0.25	0.25	0.00	0.50	0.00	0.75	9.25	6.50	4.50	4.25	3.25	5.75	4.00	5.50	-0.316895	0.455078	1.417969	-30.940001	216.440002	-63.910000	414.00	0.260258	-0.010524
2.49	6.75	10.25	4.50	10.50	0.00	0.75	0.00	0.00	0.00	0.00	0.00	0.00	0.00	0.00	0.00	0.00	-0.095215	-0.231934	0.484375	-23.100000	175.419998	65.169998	309.00	-0.341037	-0.093885	0.00	0.00	0.00	0.00	0.00	0.50	0.00	0.50	9.25	6.75	4.25	3.75	2.75	5.75	3.75	5.00	-0.372070	0.404297	1.518555	-42.490002	267.119995	-82.739998	392.00	0.269734	0.005152
2.50	8.00	12.50	8.25	13.75	0.00	4.00	0.00	0.50	0.00	0.00	0.00	0.00	0.50	0.00	0.00	0.00	-1.248047	-0.955566	4.440918	-47.110001	277.269989	29.330000	454.00	-0.312626	-0.106124	0.00	0.00	0.00	0.00	0.00	0.50	0.00	0.25	9.00	6.50	4.00	3.75	2.25	6.25	3.50	4.25	-0.318359	0.309570	1.666016	-52.779999	324.309998	-98.070000	374.00	0.273696	0.017610
2.51	8.00	12.25	10.75	15.50	0.50	5.00	0.00	1.75	0.00	0.00	0.00	0.00	0.75	0.00	0.00	0.00	-0.830078	-0.109863	2.301758	-44.029999	111.510002	4.620000	529.00	-0.292632	-0.112670	0.00	0.00	0.00	0.00	0.00	0.25	0.00	0.25	8.50	6.50	3.75	3.25	1.50	5.75	3.25	3.25	-0.356445	0.270996	1.782227	-79.029999	385.000000	-106.470001	341.00	0.276413	0.032712
2.52	7.50	11.25	10.75	15.75	0.75	6.50	0.25	2.50	0.00	0.00	0.00	0.00	1.50	0.00	0.00	0.00	-0.067383	0.334473	0.848633	-10.920000	20.719999	0.490000	556.00	-0.272691	-0.124535	0.00	0.25	0.00	0.00	0.00	0.25	0.00	0.00	7.50	6.50	3.50	3.00	1.25	5.25	2.75	2.75	-0.388184	0.402832	1.863770	-96.529999	432.179993	-115.989998	310.00	0.272906	0.036431
2.53	7.00	9.75	10.75	15.00	1.25	7.50	0.25	3.75	0.00	0.00	0.00	0.00	2.25	0.00	0.00	0.00	-0.049316	0.149902	1.039551	-2.310000	24.850000	9.310000	569.00	-0.252214	-0.136883	0.00	0.00	0.00	0.00	0.00	0.25	0.00	0.00	7.25	6.50	3.00	2.50	0.75	4.75	1.75	1.75	-0.597656	0.791016	2.308594	-70.980003	507.570007	-150.360001	273.00	0.273545	0.059808
2.54	6.50	8.75	11.00	14.75	1.50	8.50	0.25	4.25	0.00	0.00	0.25	0.50	3.00	0.00	0.00	0.00	-0.418457	-0.012695	1.265625	19.809999	0.840000	9.030000	589.00	-0.233482	-0.146061	0.25	0.00	0.00	0.00	0.00	0.00	0.00	0.00	6.25	5.50	2.75	2.25	0.50	3.50	1.25	1.50	-0.597656	0.791016	2.308594	-70.980003	507.570007	-150.360001	229.00	0.266291	0.062678
2.55	6.00	9.00	10.75	14.50	1.75	9.00	0.25	4.75	0.00	0.00	0.00	0.75	4.25	0.00	0.00	0.00	-0.269043	0.229492	1.019043	26.600000	-5.250000	7.700000	606.00	-0.222196	-0.157704	0.00	0.00	0.00	0.00	0.00	0.00	0.00	0.00	5.50	4.75	2.25	1.75	0.50	2.25	0.75	1.50	-0.852539	0.823242	2.681641	-75.599998	508.899994	-161.910004	186.00	0.267482	0.063451
2.56	6.00	9.00	10.25	14.50	1.75	9.25	0.25	5.25	0.00	0.00	0.00	1.00	4.50	0.00	0.00	0.00	-0.163574	0.149902	0.981445	28.139999	-3.920000	11.270000	614.00	-0.216213	-0.164400	0.00	0.00	0.00	0.00	0.00	0.00	0.00	0.00	5.00	4.00	1.75	1.50	0.50	1.25	0.75	1.25	-0.976562	0.626465	3.209473	-25.129999	466.200012	-184.449997	156.00	0.263344	0.063702
2.57	5.50	8.75	10.00	14.75	1.75	10.00	0.25	6.00	0.00	0.00	0.25	1.25	5.50	0.00	0.00	0.00	-0.198730	0.128906	0.991699	31.780001	-7.280000	12.110000	638.00	-0.202079	-0.176689	0.00	0.00	0.00	0.00	0.00	0.00	0.00	0.00	3.75	3.25	1.25	0.75	0.25	0.75	0.50	1.00	-0.684082	0.680176	2.801270	-38.990002	440.019989	-204.470001	113.00	0.263253	0.079116
2.58	5.50	8.75	9.50	15.25	1.75	10.50	0.25	7.00	0.00	0.00	0.25	1.50	5.75	0.00	0.00	0.00	-0.156250	0.190918	0.980957	35.980000	-9.870000	13.160000	661.00	-0.195253	-0.185648	0.00	0.00	0.00	0.00	0.00	0.00	0.00	0.00	2.75	2.00	0.75	0.50	0.00	0.25	0.00	0.50	-0.684082	0.680176	2.801270	-38.990002	440.019989	-204.470001	68.00	0.253477	0.110324
2.59	5.50	8.75	9.25	14.75	1.75	11.00	0.25	8.00	0.00	0.00	0.00	1.50	6.50	0.00	0.00	0.00	-0.122559	0.187500	0.970215	38.430000	-9.310000	14.000000	676.00	-0.188489	-0.193966	0.00	0.00	0.00	0.00	0.00	0.00	0.00	0.00	1.25	1.25	0.50	0.25	0.00	0.00	0.00	0.00	0.919922	0.796387	1.308594	-85.260002	375.410004	-240.660004	34.00	0.000000	0.000000
2.60	5.50	8.75	8.75	14.50	1.50	11.25	0.25	9.00	0.00	0.00	0.25	1.50	8.25	0.00	0.00	0.00	-0.122070	0.182617	0.973145	40.389999	-9.030000	13.230000	699.00	-0.175594	-0.206143	0.00	0.00	0.00	0.00	0.00	0.00	0.00	0.00	0.50	0.50	0.00	0.00	0.00	0.00	0.00	0.00	1.702148	1.494141	1.536133	-52.430000	312.200012	-229.389999	11.00	0.000000	0.000000
2.61	5.00	8.75	8.00	14.00	1.50	11.25	0.25	9.75	0.00	0.00	0.25	1.50	9.00	0.00	0.00	0.00	-0.119141	0.213867	0.969727	41.930000	-8.540000	11.900000	698.00	-0.166859	-0.216354	0.00	0.00	0.25	0.00	0.00	0.00	0.00	0.00	0.50	0.50	0.00	0.00	0.00	0.00	0.00	0.00	-0.029297	1.928711	3.569336	69.930000	208.460007	-151.899994	13.00	0.000000	0.000000
2.62	5.00	9.00	7.25	13.75	1.25	11.25	0.00	10.50	0.00	0.00	0.00	1.50	9.25	0.00	0.00	0.00	-0.137695	0.206543	0.980469	39.970001	-7.630000	10.220000	694.00	-0.165550	-0.226546	0.00	0.00	0.25	0.00	0.00	0.00	0.00	0.00	0.25	0.50	0.00	0.00	0.00	0.00	0.00	0.00	0.979004	1.234863	2.234375	112.559998	47.950001	-70.840004	10.00	0.000000	0.000000
2.63	4.75	8.75	6.25	13.50	1.25	11.00	0.00	11.25	0.00	0.00	0.00	1.75	9.75	0.00	0.00	0.00	-0.137207	0.219727	0.985352	36.189999	-6.160000	8.610000	691.00	-0.156544	-0.236478	0.00	0.00	0.00	0.00	0.00	0.00	0.00	0.00	0.25	0.25	0.00	0.00	0.00	0.00	0.00	0.00	1.140625	0.626953	1.317871	85.470001	-68.389999	1.260000	5.00	0.000000	0.000000
2.64	4.50	8.50	6.00	13.00	1.00	11.00	0.00	11.25	0.00	0.00	0.00	1.75	10.25	0.00	0.00	0.00	-0.138672	0.227051	0.985352	26.600000	-3.080000	5.390000	680.00	-0.151711	-0.241624	0.00	0.00	0.00	0.00	0.00	0.00	0.00	0.00	0.25	0.25	0.00	0.00	0.00	0.00	0.00	0.00	0.581543	0.340820	0.820801	30.030001	-122.779999	52.779999	5.00	0.000000	0.000000
2.65	4.50	8.25	5.25	12.50	1.00	10.75	0.00	11.50	0.00	0.00	0.00	2.00	10.25	0.00	0.00	0.00	-0.138672	0.227051	0.985352	26.600000	-3.080000	5.390000	669.00	-0.146529	-0.246631	0.00	0.00	0.00	0.00	0.00	0.00	0.00	0.00	0.00	0.25	0.00	0.00	0.00	0.00	0.00	0.00	0.327148	0.447266	0.610840	-13.930000	-128.029999	83.370003	2.00	0.000000	0.000000
2.66	4.25	7.75	5.00	12.00	0.75	10.25	0.00	11.25	0.00	0.00	0.00	2.25	10.25	0.00	0.00	0.00	-0.134766	0.233398	0.979004	15.610000	0.210000	2.520000	646.00	-0.141700	-0.250345	0.00	0.00	0.00	0.00	0.00	0.00	0.00	0.00	0.00	0.00	0.00	0.00	0.00	0.00	0.00	0.00	0.429199	0.517090	0.354004	-20.719999	-118.370003	100.940002	0.00	0.000000	0.000000
2.67	4.00	7.25	4.50	11.25	0.50	9.75	0.00	11.00	0.00	0.00	0.00	2.00	10.00	0.00	0.00	0.00	-0.139160	0.229980	0.984375	11.480000	1.820000	2.310000	612.00	-0.139082	-0.254888	0.00	0.00	0.00	0.00	0.00	0.00	0.00	0.00	0.00	0.00	0.00	0.00	0.00	0.00	0.00	0.00	0.385742	0.580078	0.400391	12.460000	-116.620003	110.250000	0.00	0.000000	0.000000
2.68	4.00	6.75	4.50	10.75	0.50	9.50	0.00	10.75	0.00	0.00	0.00	2.00	10.25	0.00	0.00	0.00	-0.147949	0.238281	0.979004	9.170000	3.150000	2.730000	599.00	-0.135540	-0.255582	0.00	0.00	0.00	0.00	0.00	0.00	0.00	0.00	0.00	0.00	0.00	0.00	0.00	0.00	0.00	0.00	0.257324	0.524414	0.599609	61.599998	-125.370003	113.470001	0.00	0.000000	0.000000
2.69	4.00	6.50	4.00	10.25	0.25	9.25	0.00	10.25	0.00	0.00	0.00	2.00	10.00	0.00	0.00	0.00	-0.141113	0.243164	0.977539	7.280000	4.200000	3.010000	572.00	-0.134547	-0.258197	0.00	0.00	0.00	0.00	0.00	0.00	0.00	0.00	0.00	0.00	0.00	0.00	0.00	0.00	0.00	0.00	0.282227	0.329102	0.684570	100.379997	-139.930008	118.090004	0.00	0.000000	0.000000
2.70	3.50	5.75	4.00	9.25	0.25	9.00	0.00	9.75	0.00	0.00	0.00	1.75	9.75	0.00	0.00	0.00	-0.125488	0.236328	0.973633	6.860000	4.340000	2.730000	537.00	-0.130178	-0.260415	0.00	0.00	0.00	0.00	0.00	0.00	0.00	0.00	0.00	0.00	0.00	0.00	0.00	0.00	0.00	0.00	0.274414	0.125000	0.754883	109.480003	-156.380005	124.879997	0.00	0.000000	0.000000
2.71	3.50	5.50	3.50	8.75	0.00	8.50	0.00	9.75	0.00	0.00	0.00	1.75	9.50	0.00	0.00	0.00	-0.130859	0.230469	1.001953	7.490000	3.710000	2.030000	516.00	-0.127109	-0.265274	0.00	0.00	0.00	0.00	0.00	0.00	0.00	0.00	0.00	0.00	0.00	0.00	0.00	0.00	0.00	0.00	0.202148	0.012695	0.859863	91.000000	-173.389999	132.369995	0.00	0.000000	0.000000
2.72	3.50	4.75	3.25	9.00	0.00	8.25	0.00	9.50	0.00	0.00	0.00	1.75	9.50	0.00	0.00	0.00	-0.124512	0.231934	0.978516	9.870000	2.240000	1.540000	503.00	-0.124244	-0.267202	0.00	0.00	0.00	0.00	0.00	0.00	0.00	0.00	0.00	0.00	0.00	0.00	0.00	0.00	0.00	0.00	0.176758	-0.040039	0.898926	59.220001	-191.169998	138.949997	0.00	0.000000	0.000000
2.73	3.50	4.75	2.75	8.50	0.00	7.75	0.00	9.00	0.00	0.00	0.00	1.75	9.25	0.00	0.00	0.00	-0.105469	0.234863	0.954102	13.020000	0.560000	0.560000	479.00	-0.123585	-0.268766	0.00	0.00	0.00	0.00	0.00	0.00	0.00	0.00	0.00	0.00	0.00	0.00	0.00	0.00	0.00	0.00	0.157715	-0.028809	0.929688	30.590000	-210.279999	143.220001	0.00	0.000000	0.000000
2.74	3.50	4.25	2.50	7.75	0.00	7.25	0.00	9.00	0.00	0.00	0.00	1.75	9.00	0.00	0.00	0.00	-0.105469	0.244629	0.914062	12.250000	-0.490000	-1.120000	458.00	-0.118374	-0.271538	0.00	0.00	0.00	0.00	0.00	0.00	0.00	0.00	0.00	0.00	0.00	0.00	0.00	0.00	0.00	0.00	0.104004	0.000977	0.957031	15.260000	-229.460007	144.059998	0.00	0.000000	0.000000
2.75	3.50	4.25	2.25	7.25	0.00	7.25	0.00	8.75	0.00	0.00	0.00	1.50	9.00	0.00	0.00	0.00	-0.106934	0.262695	0.914551	7.910000	-0.910000	-2.940000	445.00	-0.118224	-0.273070	0.00	0.00	0.00	0.00	0.00	0.00	0.00	0.00	0.00	0.00	0.00	0.00	0.00	0.00	0.00	0.00	0.038574	0.000488	0.979004	13.370000	-246.680008	140.630005	0.00	0.000000	0.000000
2.76	3.50	4.00	2.00	6.75	0.00	7.00	0.00	9.00	0.00	0.00	0.00	2.00	9.00	0.00	0.00	0.00	-0.107422	0.262207	0.891602	1.190000	-1.190000	-4.410000	441.00	-0.109414	-0.277401	0.00	0.00	0.00	0.00	0.00	0.00	0.00	0.00	0.00	0.00	0.00	0.00	0.00	0.00	0.00	0.00	-0.010254	-0.024902	1.018066	19.740000	-260.959991	133.070007	0.00	0.000000	0.000000
2.77	3.50	3.75	1.75	6.50	0.00	6.75	0.00	9.00	0.00	0.00	0.00	2.00	9.00	0.00	0.00	0.00	-0.106445	0.266113	0.902832	-6.930000	-0.490000	-5.600000	431.00	-0.105707	-0.280447	0.00	0.00	0.00	0.00	0.00	0.00	0.00	0.00	0.00	0.00	0.00	0.00	0.00	0.00	0.00	0.00	-0.099609	-0.049316	1.141113	35.349998	-282.589996	111.580002	0.00	0.000000	0.000000
2.78	3.50	3.75	1.75	6.25	0.00	6.75	0.00	9.00	0.00	0.00	0.00	2.00	9.00	0.00	0.00	0.00	-0.122559	0.258789	0.925781	-13.860000	0.210000	-6.510000	429.00	-0.104643	-0.280772	0.00	0.00	0.00	0.00	0.00	0.00	0.00	0.00	0.00	0.00	0.00	0.00	0.00	0.00	0.00	0.00	-0.099609	-0.049316	1.141113	35.349998	-282.589996	111.580002	0.00	0.000000	0.000000
2.79	3.50	3.75	1.75	6.00	0.00	6.75	0.00	9.00	0.00	0.00	0.00	2.25	9.00	0.00	0.00	0.00	-0.126953	0.239746	0.926758	-18.270000	0.840000	-6.650000	429.00	-0.101810	-0.281177	0.00	0.00	0.00	0.00	0.00	0.00	0.00	0.00	0.00	0.00	0.00	0.00	0.00	0.00	0.00	0.00	-0.148926	-0.034180	1.224121	38.990002	-291.829987	101.220001	0.00	0.000000	0.000000
2.80	3.00	3.50	1.25	6.00	0.00	6.50	0.00	9.50	0.00	0.00	0.00	2.25	9.50	0.00	0.00	0.00	-0.113281	0.224609	0.946777	-17.570000	3.080000	-6.370000	425.00	-0.090622	-0.294093	0.00	0.00	0.00	0.00	0.00	0.00	0.00	0.00	0.00	0.00	0.00	0.00	0.00	0.00	0.00	0.00	-0.204102	0.020508	1.323242	41.090000	-300.720001	93.169998	0.00	0.000000	0.000000
2.81	3.00	3.50	1.50	5.50	0.00	6.75	0.00	9.75	0.00	0.00	0.00	2.25	9.50	0.00	0.00	0.00	-0.113281	0.224609	0.946777	-17.570000	3.080000	-6.370000	429.00	-0.089082	-0.293288	0.00	0.00	0.00	0.00	0.00	0.00	0.00	0.00	0.00	0.00	0.00	0.00	0.00	0.00	0.00	0.00	-0.335938	0.157715	1.546875	43.400002	-319.619995	87.570000	0.00	0.000000	0.000000
2.82	2.50	3.50	1.50	5.50	0.00	7.25	0.00	9.75	0.00	0.00	0.00	2.50	10.00	0.00	0.00	0.00	-0.126953	0.220703	0.972656	-14.000000	3.850000	-5.600000	435.00	-0.082367	-0.298979	0.00	0.00	0.00	0.00	0.00	0.00	0.00	0.00	0.00	0.00	0.00	0.00	0.00	0.00	0.00	0.00	-0.335938	0.157715	1.546875	43.400002	-319.619995	87.570000	0.00	0.000000	0.000000
2.83	3.00	3.50	1.25	5.50	0.00	7.50	0.00	10.25	0.00	0.00	0.00	2.75	10.75	0.00	0.00	0.00	-0.136719	0.228516	0.886230	-6.230000	4.480000	-4.200000	455.00	-0.079136	-0.300311	0.00	0.00	0.00	0.00	0.00	0.00	0.00	0.00	0.00	0.00	0.00	0.00	0.00	0.00	0.00	0.00	-0.401367	0.230469	1.648438	42.630001	-329.140015	88.830002	0.00	0.000000	0.000000
2.84	3.50	3.50	1.25	5.50	0.00	7.50	0.00	10.25	0.00	0.00	0.00	3.50	11.25	0.00	0.00	0.00	-0.126465	0.221191	0.954590	-2.310000	5.600000	-3.570000	471.00	-0.075871	-0.297480	0.00	0.00	0.00	0.00	0.00	0.00	0.00	0.00	0.00	0.00	0.00	0.00	0.00	0.00	0.00	0.00	-0.481934	0.304688	1.743164	41.439999	-337.260010	90.860001	0.00	0.000000	0.000000
2.85	3.25	3.50	1.25	5.50	0.00	7.50	0.00	10.75	0.00	0.00	0.00	3.50	11.50	0.00	0.00	0.25	-0.128906	0.221191	0.973633	1.330000	7.070000	-3.220000	479.00	-0.071172	-0.301581	0.00	0.00	0.00	0.00	0.00	0.00	0.00	0.00	0.00	0.00	0.00	0.00	0.00	0.00	0.00	0.00	-0.751953	0.478027	1.971680	49.560001	-345.940002	91.139999	0.00	0.000000	0.000000
2.86	2.25	3.50	1.25	5.00	0.00	7.50	0.00	10.75	0.00	0.00	0.00	4.00	12.00	0.00	0.00	0.50	-0.142090	0.219727	0.985840	4.900000	8.190000	-3.430000	475.00	-0.056264	-0.311880	0.00	0.00	0.00	0.00	0.00	0.00	0.00	0.00	0.00	0.00	0.00	0.00	0.00	0.00	0.00	0.00	-0.921387	0.546875	2.098633	57.959999	-347.339996	89.459999	0.00	0.000000	0.000000
2.87	2.50	3.50	1.25	4.50	0.00	7.50	0.00	11.00	0.00	0.00	0.25	4.50	12.50	0.00	0.25	0.50	-0.137207	0.224609	0.979492	6.580000	9.660000	-4.130000	489.00	-0.047136	-0.310265	0.00	0.00	0.00	0.00	0.00	0.00	0.00	0.00	0.00	0.00	0.00	0.00	0.00	0.00	0.00	0.00	-1.119141	0.599121	2.209961	65.029999	-347.410004	88.129997	0.00	0.000000	0.000000
2.88	3.25	3.50	1.25	4.50	0.00	7.50	0.00	11.25	0.00	0.00	0.25	5.00	13.00	0.00	0.00	0.50	-0.138672	0.239746	0.979492	6.650000	11.620000	-4.550000	506.00	-0.049919	-0.307078	0.00	0.00	0.00	0.00	0.00	0.00	0.00	0.00	0.00	0.00	0.00	0.00	0.00	0.00	0.00	0.00	-1.375977	0.645508	2.294922	67.340004	-346.709991	87.360001	0.00	0.000000	0.000000
2.89	1.75	3.25	1.25	4.25	0.00	7.25	0.00	11.00	0.00	0.00	0.50	5.25	13.25	0.00	0.00	0.75	-0.138184	0.237305	0.964844	5.530000	13.580000	-5.040000	489.00	-0.032057	-0.319390	0.00	0.00	0.00	0.00	0.00	0.00	0.00	0.00	0.00	0.00	0.00	0.00	0.00	0.00	0.00	0.00	-1.703125	0.666992	2.288086	66.709999	-346.290009	84.980003	0.00	0.000000	0.000000
2.90	1.75	3.00	0.75	3.75	0.00	7.00	0.00	10.75	0.00	0.00	0.75	5.75	13.75	0.00	0.00	1.00	-0.133301	0.237793	0.970215	4.480000	15.610000	-5.530000	484.00	-0.018446	-0.324971	0.00	0.00	0.00	0.00	0.00	0.00	0.00	0.00	0.00	0.00	0.00	0.00	0.00	0.00	0.00	0.00	-2.118164	0.617676	2.168457	70.279999	-344.190002	80.360001	0.00	0.000000	0.000000
2.91	1.50	2.25	0.50	3.75	0.00	6.50	0.00	10.75	0.00	0.00	1.00	6.50	14.00	0.00	0.25	1.75	-0.126465	0.241211	0.956543	2.870000	18.059999	-6.020000	485.00	0.001679	-0.329640	0.00	0.00	0.00	0.00	0.00	0.00	0.00	0.00	0.00	0.00	0.00	0.00	0.00	0.00	0.00	0.00	-2.604004	0.439941	1.832520	77.769997	-336.209991	74.480003	0.00	0.000000	0.000000
2.92	0.50	1.75	0.25	3.50	0.00	6.50	0.00	10.75	0.00	0.00	1.00	7.75	14.25	0.00	0.25	2.00	-0.143066	0.235840	0.958496	-0.630000	21.980000	-7.140000	482.00	0.022994	-0.342064	0.00	0.00	0.00	0.00	0.00	0.00	0.00	0.00	0.00	0.00	0.00	0.00	0.00	0.00	0.00	0.00	-3.030273	0.114746	1.334473	88.059998	-314.929993	67.550003	0.00	0.000000	0.000000
2.93	0.00	1.25	0.00	3.25	0.00	6.00	0.00	10.25	0.00	0.00	2.25	8.50	14.50	0.00	0.00	3.00	-0.147949	0.248047	0.953125	-4.900000	26.880001	-8.330000	480.00	0.046573	-0.346095	0.25	0.00	0.00	0.00	0.00	0.00	0.00	0.00	0.00	0.00	0.00	0.00	0.00	0.00	0.00	0.00	-3.410645	-0.288086	0.831055	99.470001	-274.610016	60.830002	2.00	0.000000	0.000000
2.94	0.00	0.75	0.00	3.00	0.00	5.25	0.00	9.75	0.00	0.50	3.50	9.25	14.50	0.00	0.50	3.25	-0.146973	0.240723	0.960938	-7.000000	31.570000	-9.170000	489.00	0.069183	-0.335652	0.00	0.00	0.00	0.00	0.00	0.00	0.00	0.00	0.00	0.00	0.00	0.00	0.00	0.00	0.00	0.00	-3.739746	-0.720703	0.411133	100.940002	-217.559998	52.150002	0.00	0.000000	0.000000
2.95	0.00	0.50	0.00	2.25	0.00	4.75	0.00	9.25	0.00	0.75	3.75	10.25	14.50	0.00	1.00	4.00	-0.132324	0.239258	0.978027	-6.790000	36.680000	-10.430000	490.00	0.090020	-0.331427	0.00	0.00	0.00	0.00	0.00	0.00	0.00	0.00	0.00	0.00	0.00	0.00	0.00	0.00	0.00	0.00	-4.021973	-0.992188	0.110840	78.470001	-155.610001	34.230000	0.00	0.000000	0.000000
2.96	0.00	0.25	0.00	1.50	0.00	4.25	0.00	8.50	0.00	1.00	5.00	11.00	14.75	0.50	1.00	4.50	-0.152832	0.234863	1.003418	-7.560000	44.660000	-12.460000	495.00	0.112448	-0.321835	0.00	0.00	0.00	0.00	0.00	0.00	0.00	0.00	0.00	0.00	0.00	0.00	0.00	0.00	0.00	0.00	-4.168457	-1.017090	-0.141113	36.680000	-98.419998	9.170000	0.00	0.000000	0.000000
2.97	0.00	0.00	0.00	0.75	0.00	4.00	0.00	8.00	0.25	2.75	6.25	11.75	14.75	1.25	1.50	5.25	-0.171387	0.234863	1.061035	-5.880000	55.860001	-15.470000	530.00	0.139586	-0.294849	0.00	0.00	0.00	0.00	0.00	0.00	0.00	0.00	0.00	0.00	0.00	0.00	0.00	0.00	0.00	0.00	-4.139160	-0.937500	-0.289551	0.490000	-44.380001	-11.550000	0.00	0.000000	0.000000
2.98	0.00	0.50	0.00	0.25	0.00	3.50	0.00	7.00	0.75	3.50	7.00	12.25	14.50	3.00	2.50	5.75	-0.194336	0.229980	1.103516	-3.220000	70.910004	-17.780001	559.00	0.162037	-0.263572	0.00	0.00	0.00	0.00	0.00	0.00	0.00	0.00	0.00	0.00	0.00	0.00	0.00	0.00	0.00	0.00	-4.000977	-0.886719	-0.257812	-15.470000	10.780000	-22.889999	0.00	0.000000	0.000000
2.99	0.00	0.25	0.00	0.00	0.00	2.00	0.00	6.00	1.00	4.00	7.75	12.50	14.25	3.75	3.00	6.50	-0.201660	0.219238	1.104004	-0.000000	92.050003	-20.020000	555.00	0.187369	-0.246565	0.00	0.00	0.00	0.00	0.00	0.00	0.00	0.00	0.00	0.00	0.00	0.00	0.00	0.00	0.00	0.00	-3.695801	-0.845215	-0.042480	-22.889999	65.239998	-28.770000	0.00	0.000000	0.000000
3.00	0.00	0.25	0.00	0.00	0.00	1.50	0.00	5.25	1.50	4.25	8.50	12.50	14.00	4.50	3.75	7.25	-0.249512	0.276855	1.130859	-0.210000	139.720001	-22.820000	570.00	0.201725	-0.228509	0.00	0.00	0.00	0.00	0.00	0.00	0.00	0.00	0.00	0.00	0.00	0.00	0.00	0.00	0.00	0.00	-1.675781	0.499023	0.581055	-175.139999	217.350006	-4.690000	0.00	0.000000	0.000000
3.01	0.00	0.00	0.00	0.00	0.00	1.00	0.00	4.50	2.00	4.50	9.00	12.50	13.75	5.25	4.25	7.50	-0.263184	0.309082	1.218750	-3.920000	167.440002	-27.860001	576.00	0.216179	-0.212042	1.00	0.25	0.75	1.00	0.00	0.00	0.00	0.00	0.00	0.00	0.00	0.00	0.00	0.00	0.00	0.00	1.646484	0.294922	1.198730	-218.610001	257.320007	-17.360001	29.00	0.000000	0.000000
3.02	0.00	0.00	0.00	0.00	0.00	0.50	0.00	3.75	2.25	5.00	9.00	12.25	13.00	6.75	4.50	7.50	-0.261230	0.252441	1.255859	-9.660000	202.789993	-35.910000	574.00	0.229283	-0.191970	4.75	4.25	4.50	4.75	0.00	0.00	0.00	0.00	0.00	0.00	0.00	0.00	0.00	0.00	0.00	0.00	1.273438	0.142090	1.060547	-156.029999	218.680008	17.360001	174.00	-0.338114	-0.043949
3.03	0.00	0.00	0.00	0.00	0.00	0.25	0.00	2.75	2.25	5.25	9.00	11.75	12.50	7.75	4.50	7.50	-0.310547	0.290527	1.241211	-13.090000	240.869995	-42.349998	559.00	0.240225	-0.177566	7.50	6.25	7.00	7.25	0.00	0.00	0.00	0.00	0.00	0.00	0.00	0.00	0.00	0.00	0.00	0.00	0.172852	-0.465820	1.295898	-114.940002	203.210007	30.940001	268.00	-0.337741	-0.041020
3.04	0.00	0.00	0.00	0.00	0.00	0.00	0.00	1.75	2.50	5.25	8.75	11.50	11.50	8.50	4.25	7.25	-0.395020	0.288086	1.257812	-11.200000	284.970001	-48.580002	535.00	0.250827	-0.160752	8.75	7.75	9.50	10.75	0.00	0.00	0.00	0.00	0.00	0.00	0.00	0.00	0.00	0.00	0.00	0.00	-0.501953	-0.327148	1.395996	-75.250000	243.460007	24.290001	353.00	-0.332547	-0.049340
3.05	0.00	0.00	0.00	0.00	0.00	0.00	0.00	1.25	2.50	5.50	8.25	11.00	11.00	9.25	4.25	6.75	-0.411621	0.308105	1.447266	-12.740000	332.149994	-54.110001	520.00	0.256862	-0.148947	9.50	8.25	12.00	14.75	0.50	0.75	0.00	0.00	0.00	0.00	0.00	0.00	0.00	0.00	0.00	0.00	-1.020996	-0.466797	2.248047	-27.160000	296.660004	17.500000	442.00	-0.321137	-0.058354
3.06	0.00	0.00	0.00	0.00	0.00	0.00	0.00	0.75	2.25	5.25	7.75	10.50	10.25	9.00	4.25	5.75	-0.453613	0.353516	1.554199	-7.490000	364.559998	-60.689999	485.00	0.260996	-0.143755	9.75	8.50	15.00	18.50	3.50	5.75	0.00	0.50	0.00	0.00	0.00	0.00	0.25	0.00	0.00	0.00	-0.987305	0.223633	2.946289	5.180000	301.279999	9.450000	604.00	-0.288015	-0.077835
3.07	0.00	0.00	0.00	0.00	0.00	0.00	0.00	0.50	1.75	5.00	7.00	9.75	9.50	9.00	4.00	5.00	-0.566406	0.381348	1.778809	-5.950000	397.600006	-69.230003	447.00	0.264339	-0.141176	9.50	8.25	17.00	20.00	5.50	9.50	0.25	2.50	0.00	0.00	0.00	0.25	0.50	0.00	0.00	0.00	-1.006836	-0.081055	3.076660	-49.070000	158.339996	-0.210000	728.00	-0.259980	-0.094930
3.08	0.00	0.00	0.00	0.00	0.00	0.00	0.00	0.25	1.50	4.50	6.00	8.50	9.00	8.50	3.50	4.25	-0.704102	0.442871	2.107422	-1.470000	428.260010	-76.860001	397.00	0.266624	-0.139505	9.25	8.00	17.75	19.75	7.25	10.50	0.25	3.25	0.00	0.00	0.00	0.50	0.50	0.00	0.00	0.00	-0.656738	0.152832	1.446777	-44.590000	48.090000	-1.400000	769.00	-0.249771	-0.096490
3.09	0.00	0.00	0.00	0.00	0.00	0.00	0.00	0.00	1.25	4.25	5.25	7.50	7.75	8.00	2.50	3.75	-0.961426	0.582031	2.501953	7.280000	457.380005	-83.440002	345.00	0.268736	-0.132718	9.00	7.75	17.50	19.25	8.00	11.25	0.25	4.00	0.00	0.00	0.00	0.50	0.50	0.00	0.00	0.00	-0.027344	0.037109	1.080078	-19.320000	28.070000	12.040000	782.00	-0.243271	-0.100806
3.10	0.00	0.00	0.00	0.00	0.00	0.00	0.00	0.00	1.25	4.00	4.25	5.75	5.75	7.50	1.75	2.50	-1.121094	0.472656	3.233398	17.430000	470.750000	-88.199997	283.00	0.272140	-0.108294	8.75	7.25	16.75	18.75	8.50	11.50	0.25	4.00	0.00	0.00	0.00	0.50	0.75	0.00	0.00	0.00	-0.027344	0.037109	1.080078	-19.320000	28.070000	12.040000	773.00	-0.239203	-0.102603
3.11	0.00	0.00	0.00	0.00	0.00	0.00	0.00	0.00	0.75	3.50	3.75	4.75	4.50	5.75	1.00	1.75	-1.022461	0.622070	2.726562	4.970000	480.760010	-97.370003	223.00	0.267135	-0.113090	8.50	6.75	17.00	18.00	8.75	11.75	0.25	4.75	0.00	0.00	0.00	0.75	1.50	0.00	0.00	0.00	-0.149414	0.002930	1.069824	-10.430000	7.070000	7.000000	785.00	-0.229232	-0.108290
3.12	0.00	0.00	0.00	0.00	0.00	0.00	0.00	0.00	0.25	2.75	3.25	4.00	3.75	5.25	0.50	1.00	-0.547852	0.634766	2.913574	9.800000	484.679993	-109.830002	180.00	0.266445	-0.116967	8.50	6.75	17.00	18.00	9.75	11.75	0.25	4.75	0.00	0.00	0.00	0.75	1.75	0.00	0.00	0.25	-0.265137	0.209473	1.046875	-4.340000	-10.920000	2.660000	798.00	-0.226006	-0.107360
3.13	0.00	0.00	0.00	0.00	0.00	0.00	0.00	0.00	0.00	2.00	2.75	3.50	2.75	4.25	0.00	0.50	-0.521973	0.689453	3.080566	-16.940001	486.920013	-132.020004	137.00	0.262114	-0.123058	8.75	6.75	16.75	18.00	9.75	11.50	0.50	4.75	0.00	0.00	0.00	0.75	2.00	0.00	0.00	0.25	-0.141113	0.100586	1.027832	-4.410000	-11.900000	4.340000	801.00	-0.224316	-0.106193
3.14	0.00	0.00	0.00	0.00	0.00	0.00	0.00	0.00	0.00	1.50	1.75	2.50	2.00	3.00	0.00	0.25	-0.208984	0.747070	2.785645	-59.080002	486.290009	-147.910004	96.00	0.261479	-0.122704	8.75	7.25	16.75	18.00	10.00	11.75	0.50	4.75	0.00	0.00	0.00	0.75	2.00	0.00	0.25	0.25	-0.161621	0.139648	1.030273	-2.590000	-11.060000	3.570000	813.00	-0.222909	-0.106425
3.15	0.00	0.00	0.00	0.00	0.00	0.00	0.00	0.00	0.00	0.50	0.75	1.75	1.50	0.50	0.00	0.25	0.278320	0.994629	2.413574	-93.800003	493.779999	-161.770004	46.00	0.000000	0.000000	8.50	7.25	16.75	17.75	9.75	11.75	0.50	4.75	0.00	0.00	0.00	0.75	2.25	0.00	0.25	0.25	-0.139648	0.159668	1.002441	-0.980000	-9.170000	4.480000	807.00	-0.221514	-0.108087
3.16	0.00	0.00	0.00	0.00	0.00	0.00	0.00	0.00	0.00	0.00	0.00	0.75	0.75	0.00	0.00	0.00	1.525879	0.953613	2.304688	24.080000	451.640015	-167.369995	13.00	0.000000	0.000000	8.50	6.75	16.50	17.75	10.00	12.00	0.50	4.75	0.00	0.25	0.00	0.75	2.25	0.00	0.00	0.25	-0.119629	0.145508	1.005859	0.910000	-7.210000	4.760000	805.00	-0.220361	-0.107960
3.17	0.00	0.00	0.00	0.00	0.00	0.00	0.00	0.00	0.00	0.00	0.00	0.25	0.25	0.00	0.00	0.00	1.525879	0.953613	2.304688	24.080000	451.640015	-167.369995	4.00	0.000000	0.000000	8.50	6.75	16.00	17.25	9.75	11.75	0.50	4.75	0.25	0.25	0.00	0.75	2.00	0.00	0.00	0.50	-0.126953	0.138184	1.003906	2.800000	-5.040000	4.200000	793.00	-0.218426	-0.106499
3.18	0.00	0.00	0.00	0.00	0.00	0.00	0.00	0.00	0.00	0.00	0.00	0.00	0.25	0.25	0.00	0.00	0.914551	1.579590	3.370117	133.000000	41.930000	-84.419998	4.00	0.000000	0.000000	8.25	6.75	15.50	16.75	9.75	11.50	0.50	4.75	0.25	0.00	0.00	0.75	2.25	0.00	0.25	0.50	-0.120117	0.148926	0.993652	4.130000	-3.290000	4.200000	780.00	-0.215793	-0.108496
3.19	0.00	0.00	0.00	0.00	0.00	0.00	0.00	0.00	0.00	0.00	0.00	0.00	0.00	0.50	0.00	0.00	1.077637	0.606934	2.015625	83.930000	-99.889999	0.560000	4.00	0.000000	0.000000	8.25	6.50	15.00	16.50	9.25	11.25	0.50	5.25	0.25	0.25	0.00	0.75	2.25	0.00	0.25	0.50	-0.115234	0.147949	1.006348	5.530000	-1.260000	4.480000	772.00	-0.212238	-0.111865
3.20	0.00	0.00	0.00	0.00	0.00	0.00	0.00	0.00	0.00	0.00	0.00	0.00	0.00	0.25	0.00	0.00	0.867188	0.127930	1.054688	-25.059999	-154.979996	56.070000	2.00	0.000000	0.000000	8.00	6.50	14.50	16.00	9.00	11.00	0.50	5.25	0.50	0.25	0.00	1.00	2.25	0.00	0.25	0.75	-0.114746	0.157715	1.008301	6.860000	1.330000	4.410000	761.00	-0.207154	-0.112595
3.21	0.00	0.00	0.00	0.00	0.00	0.00	0.00	0.00	0.00	0.00	0.00	0.00	0.00	0.25	0.00	0.00	0.576172	0.210938	0.794434	-121.800003	-165.479996	81.900002	2.00	0.000000	0.000000	8.00	6.50	14.00	15.25	8.50	10.75	0.50	5.25	0.25	0.25	0.25	1.00	2.50	0.25	0.25	0.75	-0.111816	0.152344	1.012207	8.190000	3.570000	4.200000	744.00	-0.204513	-0.115223
3.22	0.00	0.00	0.00	0.00	0.00	0.00	0.00	0.00	0.00	0.00	0.00	0.00	0.00	0.00	0.00	0.00	0.475586	0.391602	0.720703	-173.039993	-163.169998	91.699997	0.00	0.000000	0.000000	7.50	6.25	13.25	14.75	8.25	10.50	0.50	5.25	0.25	0.25	0.50	1.25	2.50	0.25	0.25	0.75	-0.118164	0.156250	1.004883	9.170000	5.250000	4.130000	724.00	-0.199033	-0.118615
3.23	0.00	0.00	0.00	0.00	0.00	0.00	0.00	0.00	0.00	0.00	0.00	0.00	0.00	0.00	0.00	0.00	0.492676	0.501953	0.704590	-180.740005	-169.330002	93.169998	0.00	0.000000	0.000000	7.50	6.00	12.50	14.25	7.75	10.25	0.50	5.75	0.25	0.25	0.25	1.75	2.75	0.00	0.25	1.00	-0.135742	0.159668	1.001465	9.100000	6.440000	4.130000	713.00	-0.194245	-0.126672
3.24	0.00	0.00	0.00	0.00	0.00	0.00	0.00	0.00	0.00	0.00	0.00	0.00	0.00	0.00	0.00	0.00	0.471680	0.524902	0.760254	-161.979996	-188.229996	86.870003	0.00	0.000000	0.000000	7.50	5.75	12.00	13.75	7.50	10.00	0.50	5.25	0.50	0.25	0.50	1.75	3.50	0.00	0.25	1.25	-0.125488	0.169922	0.996094	8.190000	7.490000	3.850000	701.00	-0.187143	-0.126391
3.25	0.00	0.00	0.00	0.00	0.00	0.00	0.00	0.00	0.00	0.00	0.00	0.00	0.00	0.25	0.00	0.00	0.437012	0.473633	0.790039	-132.369995	-214.759995	75.040001	2.00	0.000000	0.000000	7.25	5.50	11.25	12.50	7.00	9.50	0.50	5.25	0.25	0.25	0.50	1.75	3.50	0.00	0.25	1.50	-0.122559	0.173340	0.982910	6.930000	7.980000	2.940000	665.00	-0.184548	-0.130205
3.26	0.00	0.00	0.00	0.00	0.00	0.00	0.00	0.00	0.00	0.00	0.00	0.00	0.00	0.25	0.00	0.00	0.398926	0.407227	0.803223	-106.120003	-240.589996	60.200001	2.00	0.000000	0.000000	7.00	4.75	10.50	12.25	6.50	9.25	0.25	5.25	0.25	0.25	0.50	1.75	3.50	0.00	0.50	1.50	-0.125488	0.181152	0.986816	4.830000	7.840000	1.260000	637.00	-0.179859	-0.135809
3.27	0.00	0.00	0.00	0.00	0.00	0.00	0.00	0.00	0.00	0.00	0.00	0.00	0.00	0.25	0.00	0.00	0.327637	0.360352	0.829590	-89.529999	-263.200012	45.150002	2.00	0.000000	0.000000	6.25	4.50	10.00	10.75	6.00	9.00	0.25	5.25	0.25	0.50	0.50	1.75	3.50	0.00	0.50	1.50	-0.131836	0.181641	0.969238	2.870000	7.350000	-0.490000	603.00	-0.171899	-0.138555
3.28	0.00	0.00	0.00	0.00	0.00	0.00	0.00	0.00	0.00	0.00	0.00	0.00	0.00	0.25	0.00	0.00	0.253418	0.377930	0.875000	-79.309998	-283.290009	32.619999	2.00	0.000000	0.000000	6.00	4.25	9.75	9.75	5.50	8.25	0.25	4.75	0.25	0.50	0.75	2.00	3.50	0.00	0.50	1.75	-0.130859	0.175293	0.971680	1.190000	6.930000	-2.100000	573.00	-0.165774	-0.136853
3.29	0.00	0.00	0.00	0.00	0.00	0.00	0.00	0.00	0.00	0.00	0.00	0.00	0.00	0.25	0.00	0.00	0.175781	0.441895	0.937988	-71.470001	-301.769989	23.590000	2.00	0.000000	0.000000	5.50	3.75	9.25	8.75	5.50	7.25	0.25	4.75	0.25	0.50	0.75	2.25	3.50	0.00	0.50	1.75	-0.127930	0.170410	0.980469	-0.910000	6.790000	-3.010000	541.00	-0.157122	-0.137481
3.30	0.00	0.00	0.00	0.00	0.00	0.00	0.00	0.00	0.00	0.00	0.00	0.00	0.00	0.00	0.00	0.00	0.094238	0.494629	0.976074	-61.599998	-319.480011	18.549999	0.00	0.000000	0.000000	5.00	3.50	9.00	8.25	5.25	7.00	0.25	4.25	0.25	0.50	0.75	2.25	3.25	0.00	0.50	1.75	-0.134277	0.165039	0.982422	-2.520000	7.070000	-3.500000	513.00	-0.155382	-0.135517
3.31	0.00	0.00	0.00	0.00	0.00	0.00	0.00	0.00	0.00	0.00	0.00	0.00	0.00	0.00	0.00	0.00	0.025391	0.529785	1.006348	-48.580002	-335.230011	17.360001	0.00	0.000000	0.000000	4.50	3.50	8.75	7.25	5.00	6.50	0.25	4.25	0.50	0.50	0.75	2.25	3.25	0.00	0.75	1.75	-0.140625	0.167480	0.976562	-3.500000	7.490000	-3.640000	493.00	-0.144676	-0.134076
3.32	0.00	0.00	0.00	0.00	0.00	0.00	0.00	0.00	0.00	0.00	0.00	0.00	0.00	0.00	0.00	0.00	-0.142090	0.557617	1.075195	-17.780001	-354.690002	22.750000	0.00	0.000000	0.000000	4.25	3.25	8.00	7.00	4.50	5.75	0.25	4.25	0.50	0.75	1.00	2.25	3.50	0.00	0.50	2.00	-0.136719	0.175293	0.991211	-3.920000	7.980000	-3.850000	472.00	-0.135869	-0.139214
3.33	0.00	0.00	0.00	0.00	0.00	0.00	0.00	0.00	0.00	0.00	0.00	0.00	0.00	0.00	0.00	0.00	-0.142090	0.557617	1.075195	-17.780001	-354.690002	22.750000	0.00	0.000000	0.000000	4.00	2.50	7.50	6.25	4.25	5.50	0.25	4.00	0.75	0.75	1.25	2.75	3.75	0.25	0.50	2.50	-0.142578	0.163086	0.989746	-4.270000	8.400000	-4.270000	459.00	-0.113159	-0.139543
3.34	0.00	0.00	0.00	0.00	0.00	0.00	0.00	0.00	0.00	0.00	0.00	0.00	0.00	0.00	0.00	0.00	-0.208984	0.580566	1.132812	-2.100000	-358.820007	28.210001	0.00	0.000000	0.000000	3.75	1.75	6.75	6.00	4.00	5.25	0.25	4.00	0.75	0.75	1.25	3.00	3.75	0.25	0.75	2.75	-0.157715	0.166504	0.983887	-3.570000	8.540000	-4.690000	441.00	-0.097374	-0.145407
3.35	0.00	0.00	0.00	0.00	0.00	0.00	0.00	0.00	0.00	0.00	0.00	0.00	0.00	0.00	0.00	0.00	-0.270508	0.604492	1.226074	14.350000	-359.869995	35.139999	0.00	0.000000	0.000000	3.50	1.75	6.25	6.00	3.75	4.75	0.25	3.75	0.75	1.25	1.75	3.25	3.75	0.25	1.25	2.75	-0.157715	0.166504	0.983887	-3.570000	8.540000	-4.690000	439.00	-0.079250	-0.144834
3.36	0.00	0.00	0.00	0.00	0.00	0.00	0.00	0.00	0.00	0.00	0.00	0.00	0.00	0.00	0.00	0.00	-0.373535	0.616211	1.472656	47.459999	-358.610016	55.580002	0.00	0.000000	0.000000	3.50	2.00	5.75	5.50	3.50	4.25	0.25	3.75	1.00	1.50	2.00	3.25	4.00	0.50	1.25	3.50	-0.157715	0.166016	0.989258	-3.430000	9.170000	-4.760000	439.00	-0.062485	-0.143770
3.37	0.00	0.00	0.00	0.00	0.00	0.00	0.00	0.00	0.00	0.00	0.00	0.00	0.00	0.00	0.00	0.00	-0.415039	0.614258	1.621582	62.090000	-360.989990	69.230003	0.00	0.000000	0.000000	3.25	1.00	5.00	4.75	3.50	4.25	0.25	3.50	1.50	1.50	2.25	3.75	4.00	0.50	1.25	3.50	-0.156250	0.169434	0.990723	-4.480000	9.940000	-6.300000	423.00	-0.037028	-0.141129
3.38	0.00	0.00	0.00	0.00	0.00	0.00	0.00	0.00	0.00	0.00	0.00	0.00	0.00	0.00	0.00	0.00	-0.483398	0.590332	1.771484	73.430000	-364.279999	83.160004	0.00	0.000000	0.000000	2.75	1.25	4.75	4.25	3.00	4.25	0.25	3.50	2.00	2.00	2.50	3.75	4.00	0.50	1.50	3.50	-0.156250	0.169434	0.990723	-4.480000	9.940000	-6.300000	423.00	-0.018137	-0.138191
3.39	0.00	0.00	0.00	0.00	0.00	0.00	0.00	0.00	0.00	0.00	0.00	0.00	0.00	0.00	0.00	0.00	-0.632324	0.552246	1.949219	82.599998	-366.660004	93.309998	0.00	0.000000	0.000000	2.25	1.50	4.75	3.50	2.50	3.75	0.25	3.25	2.50	2.25	2.50	3.75	4.25	0.50	2.25	4.00	-0.153320	0.167480	0.984375	-5.320000	10.570000	-7.420000	420.00	0.007724	-0.132838
3.40	0.00	0.00	0.00	0.00	0.00	0.00	0.00	0.00	0.00	0.00	0.00	0.00	0.00	0.00	0.00	0.00	-0.807129	0.470703	2.104004	92.680000	-369.880005	98.349998	0.00	0.000000	0.000000	1.75	0.75	4.25	3.50	2.25	3.00	0.25	3.00	3.25	2.75	2.75	3.75	4.25	0.75	2.25	4.25	-0.153809	0.188965	1.003418	-7.980000	13.440001	-11.690000	410.00	0.038759	-0.122085
3.41	0.00	0.00	0.00	0.00	0.00	0.00	0.00	0.00	0.00	0.00	0.00	0.00	0.00	0.00	0.00	0.00	-0.994629	0.374512	2.206543	100.169998	-373.799988	98.629997	0.00	0.000000	0.000000	1.50	0.25	3.75	3.00	1.75	2.75	0.25	2.75	3.75	3.25	3.00	3.75	4.25	1.00	2.50	4.75	-0.170410	0.196289	1.012695	-9.870000	16.450001	-15.260000	402.00	0.070519	-0.114761
3.42	0.00	0.00	0.00	0.00	0.00	0.00	0.00	0.00	0.00	0.00	0.00	0.00	0.00	0.25	0.00	0.00	-1.210938	0.272461	2.310547	102.129997	-376.529999	95.690002	2.00	0.000000	0.000000	1.25	0.25	3.50	2.50	1.50	2.50	0.25	2.50	4.50	3.50	3.75	4.25	4.25	1.75	2.75	5.00	-0.189941	0.163574	0.988770	-10.710000	19.389999	-18.410000	416.00	0.099678	-0.102755
3.43	0.00	0.00	0.00	0.00	0.00	0.00	0.00	0.00	0.00	0.00	0.00	0.00	0.00	0.25	0.00	0.00	-1.468262	0.152832	2.390625	98.349998	-378.350006	90.019997	2.00	0.000000	0.000000	1.00	0.00	3.50	2.00	1.25	1.50	0.00	2.50	5.25	4.00	3.75	4.25	4.25	2.25	3.25	5.50	-0.170898	0.159668	0.995605	-10.360000	21.490000	-20.090000	416.00	0.130441	-0.090325
3.44	0.00	0.00	0.00	0.00	0.00	0.00	0.00	0.00	0.00	0.00	0.00	0.00	0.00	0.25	0.00	0.00	-1.801270	0.040039	2.398438	91.910004	-379.049988	80.150002	2.00	0.000000	0.000000	1.25	0.00	2.25	1.50	1.00	1.00	0.00	2.00	5.25	4.25	4.25	4.50	4.25	2.75	3.50	6.50	-0.186035	0.141602	0.990723	-8.470000	23.170000	-20.930000	407.00	0.161778	-0.087430
3.45	0.00	0.00	0.00	0.00	0.00	0.00	0.00	0.00	0.00	0.00	0.00	0.00	0.00	0.00	0.00	0.00	-2.218750	-0.135742	2.347168	88.480003	-377.160004	62.650002	0.00	0.000000	0.000000	1.25	0.00	1.75	1.50	0.75	1.00	0.00	2.00	6.25	4.75	4.75	4.75	4.25	3.75	4.25	7.25	-0.212891	0.147461	0.995605	-5.390000	25.340000	-21.980000	442.00	0.182840	-0.077481
3.46	0.00	0.00	0.00	0.00	0.00	0.00	0.00	0.00	0.00	0.00	0.00	0.00	0.00	0.00	0.00	0.00	-2.702637	-0.397461	2.165039	93.940002	-368.760010	36.119999	0.00	0.000000	0.000000	1.00	0.00	2.00	1.25	0.50	0.75	0.00	2.00	6.75	5.50	4.50	4.75	4.25	4.50	5.00	8.25	-0.202637	0.176270	1.040039	-3.360000	30.940001	-22.750000	464.00	0.199312	-0.068895
3.47	0.00	0.00	0.00	0.00	0.00	0.00	0.00	0.00	0.00	0.00	0.00	0.00	0.00	0.00	0.00	0.00	-3.210449	-0.728516	1.902832	107.169998	-350.769989	2.030000	0.00	0.000000	0.000000	0.25	0.25	1.50	1.00	0.50	0.75	0.00	1.75	7.25	6.25	5.00	5.00	4.50	5.25	5.25	9.00	-0.214355	0.150391	1.113281	-2.380000	42.700001	-23.870001	482.00	0.220876	-0.066442
3.48	0.00	0.00	0.00	0.00	0.00	0.00	0.00	0.00	0.00	0.00	0.00	0.00	0.00	0.00	0.00	0.00	-3.698242	-1.169434	1.468262	117.529999	-321.579987	-35.910000	0.00	0.000000	0.000000	0.25	0.25	1.00	0.50	0.25	0.50	0.00	1.50	8.50	6.75	5.25	5.00	4.50	6.25	5.50	9.50	-0.230957	0.144531	1.211426	-2.590000	63.770000	-23.940001	498.00	0.242108	-0.050026
3.49	0.00	0.00	0.00	0.00	0.00	0.00	0.00	0.00	0.00	0.00	0.00	0.00	0.00	0.00	0.00	0.00	-4.127441	-1.531250	0.956543	107.660004	-280.630005	-74.900002	0.00	0.000000	0.000000	0.25	0.00	0.75	0.50	0.00	0.50	0.00	1.25	9.00	7.25	5.25	5.00	4.25	7.25	6.00	10.00	-0.235352	0.105469	1.209961	-4.690000	90.790001	-23.520000	511.00	0.256069	-0.040116
3.50	0.00	0.00	0.00	0.00	0.00	0.00	0.00	0.00	0.00	0.00	0.00	0.00	0.00	0.00	0.00	0.00	-4.505859	-1.566406	0.060059	64.540001	-230.720001	-111.300003	0.00	0.000000	0.000000	0.00	0.25	0.50	0.00	0.00	0.25	0.00	1.00	9.25	7.75	5.25	5.00	4.00	8.50	6.50	10.50	-0.258789	0.160156	1.229004	-10.220000	119.629997	-22.610001	520.00	0.272930	-0.029936
3.51	0.00	0.00	0.00	0.00	0.00	0.00	0.00	0.00	0.00	0.00	0.00	0.00	0.00	0.00	0.00	0.00	-4.505859	-1.223145	0.060059	-1.190000	-175.630005	-135.380005	0.00	0.000000	0.000000	0.00	0.25	0.25	0.00	0.00	0.00	0.00	0.75	9.50	7.75	5.25	5.00	4.00	9.00	6.75	10.50	-0.298828	0.174316	1.210449	-13.300000	151.690002	-24.290001	521.00	0.281080	-0.023884
3.52	0.00	0.00	0.00	0.00	0.00	0.00	0.00	0.00	0.00	0.00	0.00	0.00	0.00	0.25	0.00	0.00	-4.461426	-0.417969	-0.133789	-76.300003	-52.990002	-132.369995	2.00	0.000000	0.000000	0.00	0.00	0.00	0.00	0.00	0.00	0.00	0.50	9.25	7.50	5.25	5.00	3.50	10.00	6.75	10.50	-0.316406	0.182129	1.255371	-14.770000	185.500000	-27.510000	511.00	0.291890	-0.017024
3.53	0.00	0.00	0.00	0.00	0.00	0.00	0.00	0.00	0.00	0.00	0.00	0.00	0.00	0.00	0.00	0.00	-5.575195	-0.965332	-1.616699	-100.940002	-0.350000	-115.570000	0.00	0.000000	0.000000	0.00	0.00	0.00	0.00	0.00	0.00	0.00	0.25	9.25	7.50	5.25	4.75	3.25	9.75	6.50	10.00	-0.328125	0.213379	1.308594	-16.940001	220.639999	-32.410000	497.00	0.293544	-0.010219
3.54	0.00	0.00	0.00	0.00	0.00	0.00	0.00	0.00	0.00	0.00	0.00	0.00	0.00	0.00	0.00	0.00	-0.865723	0.275879	0.379395	-229.949997	195.369995	-82.879997	0.00	0.000000	0.000000	0.00	0.00	0.00	0.00	0.00	0.00	0.00	0.25	9.00	7.75	5.00	4.75	2.75	9.75	6.50	9.25	-0.355957	0.241211	1.394043	-21.559999	261.100006	-39.270000	486.00	0.294357	-0.005043
