# Measurement Wed, 01 Mar 2023 - 20:15:15.476 (01:35.824) SN8508 SN8509 Size 4, normal
# No Name, No Comment, No tags
# time	left pressure 1[N/cm²]	left pressure 2[N/cm²]	left pressure 3[N/cm²]	left pressure 4[N/cm²]	left pressure 5[N/cm²]	left pressure 6[N/cm²]	left pressure 7[N/cm²]	left pressure 8[N/cm²]	left pressure 9[N/cm²]	left pressure 10[N/cm²]	left pressure 11[N/cm²]	left pressure 12[N/cm²]	left pressure 13[N/cm²]	left pressure 14[N/cm²]	left pressure 15[N/cm²]	left pressure 16[N/cm²]	left acceleration X[g]	left acceleration Y[g]	left acceleration Z[g]	left angular X[dps]	left angular Y[dps]	left angular Z[dps]	left total force[N]	left center of pressure X[-0.5...+0.5]	left center of pressure Y[-0.5...+0.5]	right pressure 1[N/cm²]	right pressure 2[N/cm²]	right pressure 3[N/cm²]	right pressure 4[N/cm²]	right pressure 5[N/cm²]	right pressure 6[N/cm²]	right pressure 7[N/cm²]	right pressure 8[N/cm²]	right pressure 9[N/cm²]	right pressure 10[N/cm²]	right pressure 11[N/cm²]	right pressure 12[N/cm²]	right pressure 13[N/cm²]	right pressure 14[N/cm²]	right pressure 15[N/cm²]	right pressure 16[N/cm²]	right acceleration X[g]	right acceleration Y[g]	right acceleration Z[g]	right angular X[dps]	right angular Y[dps]	right angular Z[dps]	right total force[N]	right center of pressure X[-0.5...+0.5]	right center of pressure Y[-0.5...+0.5]
0.00	7.50	8.75	4.00	6.00	0.25	1.00	0.00	0.50	0.00	0.00	0.00	0.00	0.00	0.00	0.00	0.00	-0.145996	0.095703	1.007324	8.050000	-8.540000	-0.280000	265.00	-0.337227	-0.074249	10.50	13.75	7.75	11.25	0.50	4.25	0.00	1.00	0.00	0.00	0.00	0.00	0.25	0.00	0.00	0.00	-0.082520	0.219238	0.994141	3.640000	-8.960000	3.150000	470.00	-0.316126	-0.094246
0.01	7.50	8.75	4.00	6.00	0.00	1.25	0.00	0.50	0.00	0.00	0.00	0.00	0.00	0.00	0.00	0.00	-0.139160	0.099121	1.011719	9.100000	-10.290000	-0.420000	265.00	-0.337499	-0.077398	10.50	14.00	7.75	11.25	0.50	4.50	0.00	1.00	0.00	0.00	0.00	0.00	0.25	0.00	0.00	0.00	-0.075195	0.220215	0.982910	4.270000	-9.450000	3.150000	475.00	-0.315713	-0.095500
0.02	7.50	8.75	4.00	6.00	0.00	1.25	0.00	0.25	0.00	0.00	0.00	0.00	0.00	0.00	0.00	0.00	-0.141602	0.097656	1.004883	9.730000	-12.320000	-0.840000	262.00	-0.341820	-0.073219	10.50	14.00	7.50	11.25	0.50	4.50	0.00	0.75	0.00	0.00	0.00	0.00	0.00	0.00	0.00	0.00	-0.074707	0.221191	0.971680	4.130000	-9.450000	3.150000	467.00	-0.320319	-0.092740
0.03	7.50	9.00	4.00	6.00	0.25	1.25	0.00	0.25	0.00	0.00	0.00	0.00	0.00	0.00	0.00	0.00	-0.129883	0.087402	1.022949	10.290000	-14.560000	-1.050000	266.00	-0.340370	-0.072685	10.00	14.00	7.00	11.25	0.25	4.25	0.00	1.00	0.00	0.00	0.00	0.00	0.00	0.00	0.00	0.00	-0.073730	0.225586	0.974609	3.500000	-9.100000	3.220000	456.00	-0.319713	-0.099024
0.04	8.00	9.00	4.00	6.00	0.25	1.25	0.00	0.25	0.00	0.00	0.00	0.00	0.00	0.00	0.00	0.00	-0.128418	0.094727	1.009766	8.890000	-18.969999	-2.170000	271.00	-0.341471	-0.069512	10.50	14.25	7.75	12.25	0.25	4.25	0.00	1.00	0.00	0.00	0.00	0.00	0.25	0.00	0.00	0.00	-0.075195	0.225586	0.996094	3.360000	-8.890000	3.220000	482.00	-0.317404	-0.098403
0.05	8.00	9.00	4.00	6.00	0.00	1.00	0.00	0.25	0.00	0.00	0.00	0.00	0.00	0.00	0.00	0.00	-0.128418	0.094727	1.009766	8.890000	-18.969999	-2.170000	266.00	-0.345283	-0.068845	10.50	14.25	7.75	12.25	0.50	4.50	0.00	1.25	0.00	0.00	0.00	0.00	0.00	0.00	0.00	0.00	-0.071777	0.224121	0.992676	3.430000	-9.310000	3.220000	489.00	-0.315392	-0.099076
0.06	8.50	8.75	4.25	6.00	0.00	1.00	0.00	0.25	0.00	0.00	0.00	0.00	0.00	0.00	0.00	0.00	-0.124023	0.106445	0.997070	6.440000	-20.440001	-2.450000	271.00	-0.344992	-0.063498	11.00	14.25	7.75	12.25	0.50	4.50	0.00	1.25	0.00	0.00	0.00	0.00	0.00	0.00	0.00	0.00	-0.063477	0.229004	0.992188	3.640000	-9.590000	3.080000	493.00	-0.316236	-0.097081
0.07	8.00	8.75	4.25	6.50	0.00	1.00	0.00	0.25	0.00	0.00	0.00	0.00	0.00	0.00	0.00	0.00	-0.124023	0.106445	0.997070	6.440000	-20.440001	-2.450000	271.00	-0.342911	-0.069488	11.00	14.50	7.75	11.25	0.25	4.25	0.00	1.25	0.00	0.00	0.00	0.00	0.00	0.00	0.00	0.00	-0.069824	0.234863	0.980469	3.780000	-9.800000	3.010000	480.00	-0.319123	-0.094631
0.08	8.50	8.75	4.25	6.50	0.00	1.25	0.00	0.25	0.00	0.00	0.00	0.00	0.00	0.00	0.00	0.00	-0.123535	0.138672	1.031250	4.550000	-21.420000	-1.680000	279.00	-0.342237	-0.068273	11.00	14.75	7.75	11.25	0.25	4.25	0.00	1.00	0.00	0.00	0.00	0.00	0.25	0.00	0.00	0.00	-0.066895	0.235352	0.975586	3.220000	-9.380000	3.010000	481.00	-0.319742	-0.094318
0.09	8.75	8.75	4.25	6.50	0.00	1.25	0.00	0.00	0.00	0.00	0.00	0.00	0.00	0.00	0.00	0.00	-0.108398	0.139648	1.015625	3.220000	-22.680000	-0.980000	277.00	-0.346891	-0.062709	11.00	14.50	7.75	11.25	0.25	4.25	0.00	1.00	0.00	0.00	0.00	0.00	0.00	0.00	0.00	0.00	-0.068359	0.229004	0.987793	2.940000	-8.960000	3.080000	477.00	-0.321359	-0.092464
0.10	8.75	9.00	4.25	6.50	0.00	0.75	0.00	0.00	0.00	0.00	0.00	0.00	0.25	0.00	0.00	0.00	-0.110840	0.140137	1.017578	2.660000	-23.520000	0.070000	277.00	-0.347203	-0.062591	11.00	14.75	7.50	11.25	0.50	4.25	0.00	0.75	0.00	0.00	0.00	0.00	0.00	0.00	0.00	0.00	-0.072266	0.229004	0.989258	2.940000	-9.170000	3.010000	475.00	-0.323306	-0.090765
0.11	8.75	9.00	4.25	6.50	0.00	0.75	0.00	0.00	0.00	0.00	0.00	0.00	0.00	0.00	0.00	0.00	-0.106445	0.124023	1.034180	2.660000	-24.990000	0.980000	275.00	-0.350953	-0.059694	11.00	14.75	7.75	11.25	0.50	4.25	0.00	0.75	0.00	0.00	0.00	0.00	0.25	0.00	0.00	0.00	-0.065430	0.231445	0.991699	3.080000	-9.450000	2.940000	480.00	-0.320951	-0.091349
0.12	8.75	9.25	4.25	6.25	0.00	0.50	0.00	0.00	0.00	0.00	0.00	0.00	0.25	0.00	0.00	0.00	-0.096680	0.112305	0.999023	2.450000	-26.389999	1.190000	274.00	-0.350056	-0.059989	11.00	14.50	7.75	11.25	0.50	4.25	0.00	1.00	0.00	0.00	0.00	0.00	0.00	0.00	0.00	0.00	-0.068359	0.240234	0.988770	3.430000	-10.360000	3.010000	479.00	-0.320332	-0.091659
0.13	8.75	9.25	4.25	6.25	0.00	0.50	0.00	0.00	0.00	0.00	0.00	0.00	0.00	0.00	0.00	0.00	-0.085449	0.111328	0.991211	2.310000	-26.600000	0.910000	272.00	-0.353867	-0.057041	11.00	14.50	7.75	11.25	0.00	4.25	0.00	0.75	0.00	0.00	0.00	0.00	0.00	0.00	0.00	0.00	-0.062012	0.237793	0.986816	3.150000	-10.500000	2.870000	471.00	-0.324686	-0.091074
0.14	8.75	9.50	4.00	6.25	0.00	0.25	0.00	0.00	0.00	0.00	0.00	0.00	0.00	0.00	0.00	0.00	-0.075684	0.117676	1.005371	2.240000	-26.180000	0.560000	269.00	-0.357065	-0.057288	11.00	14.75	7.50	11.25	0.25	4.25	0.00	0.50	0.00	0.00	0.00	0.00	0.00	0.00	0.00	0.00	-0.065430	0.242188	0.983398	2.380000	-10.780000	2.730000	469.00	-0.326667	-0.089349
0.15	9.00	9.50	4.00	6.00	0.00	0.50	0.00	0.00	0.00	0.00	0.00	0.00	0.25	0.00	0.00	0.00	-0.083496	0.116699	1.004883	2.520000	-27.160000	0.560000	273.00	-0.352396	-0.059224	11.00	14.75	7.75	11.25	0.25	4.25	0.00	0.50	0.00	0.00	0.00	0.00	0.00	0.00	0.00	0.00	-0.058105	0.237793	0.973145	1.680000	-10.990000	2.730000	472.00	-0.326336	-0.088383
0.16	9.25	9.50	4.00	6.00	0.00	0.50	0.00	0.00	0.00	0.00	0.00	0.00	0.25	0.00	0.00	0.00	-0.073730	0.118164	0.972168	2.730000	-27.510000	0.700000	275.00	-0.352835	-0.057780	11.00	14.75	7.75	11.25	0.00	4.25	0.00	0.50	0.00	0.00	0.00	0.00	0.00	0.00	0.00	0.00	-0.059082	0.232910	0.969238	0.980000	-10.640000	2.730000	469.00	-0.327411	-0.089184
0.17	9.25	9.75	4.00	6.25	0.00	0.25	0.00	0.00	0.00	0.00	0.00	0.00	0.00	0.00	0.00	0.00	-0.058105	0.120605	0.965332	2.730000	-26.110001	0.770000	276.00	-0.358317	-0.055265	11.00	14.75	7.75	11.25	0.00	4.00	0.00	0.50	0.00	0.00	0.00	0.00	0.00	0.00	0.00	0.00	-0.060547	0.236816	0.983398	0.350000	-10.010000	2.520000	467.00	-0.328345	-0.088205
0.18	9.25	10.00	4.00	6.25	0.00	0.25	0.00	0.00	0.00	0.00	0.00	0.00	0.00	0.00	0.00	0.00	-0.052734	0.116211	0.967285	2.380000	-23.940001	0.490000	278.00	-0.358759	-0.056105	11.00	14.75	7.75	11.25	0.25	4.25	0.00	0.25	0.00	0.00	0.00	0.00	0.00	0.00	0.00	0.00	-0.056152	0.236328	0.977051	0.420000	-9.940000	2.450000	469.00	-0.328666	-0.086132
0.19	9.25	10.25	4.00	6.25	0.00	0.25	0.00	0.00	0.00	0.00	0.00	0.00	0.00	0.00	0.00	0.00	-0.051758	0.123047	0.965820	2.380000	-22.469999	0.280000	280.00	-0.359195	-0.056933	11.25	14.75	7.75	11.25	0.25	4.25	0.00	0.50	0.00	0.00	0.00	0.00	0.00	0.00	0.00	0.00	-0.054688	0.233398	0.971191	0.350000	-9.520000	2.380000	474.00	-0.326721	-0.087399
0.20	9.25	10.00	4.00	6.00	0.00	0.00	0.00	0.00	0.00	0.00	0.00	0.00	0.00	0.00	0.00	0.00	-0.044922	0.125977	0.971680	2.450000	-20.790001	0.280000	273.00	-0.361297	-0.052575	11.25	14.75	7.75	11.25	0.25	4.25	0.00	0.50	0.00	0.00	0.00	0.00	0.00	0.00	0.00	0.00	-0.053711	0.246094	0.976074	-0.840000	-7.910000	2.310000	474.00	-0.326721	-0.087399
0.21	9.50	10.00	4.00	6.00	0.00	0.00	0.00	0.00	0.00	0.00	0.00	0.00	0.25	0.00	0.00	0.00	-0.044922	0.125977	0.971680	2.450000	-20.790001	0.280000	277.00	-0.357839	-0.054140	11.25	14.50	7.75	12.25	0.25	4.25	0.00	0.50	0.00	0.00	0.00	0.00	0.00	0.00	0.00	0.00	-0.053711	0.246094	0.976074	-0.840000	-7.910000	2.310000	482.00	-0.325514	-0.089916
0.22	9.25	10.00	4.00	6.00	0.00	0.00	0.00	0.00	0.00	0.00	0.00	0.00	0.00	0.00	0.00	0.00	-0.031250	0.128906	0.951172	2.030000	-19.110001	0.350000	273.00	-0.361297	-0.052575	11.25	14.75	7.75	11.25	0.00	4.25	0.00	0.25	0.00	0.00	0.00	0.00	0.00	0.00	0.00	0.00	-0.055176	0.237305	0.978027	-1.540000	-7.560000	2.380000	468.00	-0.330134	-0.085937
0.23	9.50	11.00	4.00	6.00	0.00	0.00	0.00	0.00	0.00	0.00	0.00	0.00	0.00	0.00	0.00	0.00	-0.038086	0.127930	0.993164	1.960000	-16.030001	0.700000	284.00	-0.363294	-0.054600	11.25	15.00	7.50	11.25	0.00	4.00	0.00	0.25	0.00	0.00	0.00	0.00	0.00	0.00	0.00	0.00	-0.051270	0.235352	0.981445	-2.240000	-7.350000	2.240000	465.00	-0.331831	-0.086262
0.24	10.00	11.00	4.00	6.50	0.00	0.00	0.00	0.00	0.00	0.00	0.00	0.00	0.00	0.00	0.00	0.00	-0.039551	0.128906	0.979004	1.680000	-15.470000	0.770000	293.00	-0.362647	-0.054874	11.25	15.00	7.50	11.25	0.25	3.75	0.00	0.25	0.00	0.00	0.00	0.00	0.00	0.00	0.00	0.00	-0.049805	0.241699	0.968750	-3.710000	-6.160000	2.170000	465.00	-0.331677	-0.084468
0.25	9.50	11.50	4.00	6.25	0.00	0.00	0.00	0.00	0.00	0.00	0.00	0.00	0.00	0.00	0.00	0.00	-0.022949	0.126465	0.976562	1.400000	-14.420000	0.770000	290.00	-0.363414	-0.057689	11.25	15.00	7.50	11.25	0.25	3.25	0.00	0.25	0.00	0.00	0.00	0.00	0.00	0.00	0.00	0.00	-0.049805	0.241699	0.968750	-3.710000	-6.160000	2.170000	460.00	-0.333616	-0.082432
0.26	9.50	11.50	4.25	6.00	0.00	0.00	0.00	0.00	0.00	0.00	0.00	0.00	0.00	0.00	0.00	0.00	-0.028809	0.131836	0.971191	0.840000	-13.020000	0.700000	290.00	-0.363208	-0.054952	11.25	15.00	7.50	11.25	0.00	3.25	0.00	0.25	0.00	0.00	0.00	0.00	0.00	0.00	0.00	0.00	-0.049805	0.235840	0.961426	-4.690000	-5.390000	1.960000	458.00	-0.334758	-0.083220
0.27	9.25	11.25	4.25	6.25	0.00	0.00	0.00	0.00	0.00	0.00	0.00	0.00	0.00	0.00	0.00	0.00	-0.020996	0.132324	0.970215	0.210000	-11.410000	0.630000	288.00	-0.361829	-0.056964	12.25	15.00	7.50	11.25	0.25	3.00	0.00	0.25	0.00	0.00	0.00	0.00	0.00	0.00	0.00	0.00	-0.054688	0.231934	0.979492	-3.640000	-6.370000	2.240000	467.00	-0.335995	-0.077544
0.28	9.50	11.00	4.25	6.50	0.00	0.00	0.00	0.00	0.00	0.00	0.00	0.00	0.00	0.00	0.00	0.00	-0.020508	0.137695	0.965820	-0.350000	-9.520000	0.700000	291.00	-0.361131	-0.056273	11.25	15.00	7.50	10.75	0.25	3.00	0.00	0.25	0.00	0.00	0.00	0.00	0.00	0.00	0.00	0.00	-0.051270	0.230469	0.987305	-2.730000	-6.160000	2.170000	453.00	-0.335122	-0.079808
0.29	10.00	11.25	4.00	6.50	0.00	0.00	0.00	0.00	0.00	0.00	0.00	0.00	0.25	0.00	0.00	0.00	-0.022949	0.136230	0.962402	-0.840000	-7.700000	0.980000	297.00	-0.359462	-0.058389	11.25	15.00	7.75	11.25	0.25	3.00	0.00	0.25	0.00	0.00	0.00	0.00	0.00	0.00	0.00	0.00	-0.057617	0.224121	0.982910	-1.890000	-6.230000	1.960000	461.00	-0.334218	-0.080451
0.30	9.50	11.00	4.00	6.50	0.00	0.00	0.00	0.00	0.00	0.00	0.00	0.00	0.00	0.00	0.00	0.00	-0.020020	0.124023	0.981445	-0.770000	-6.090000	1.120000	289.00	-0.361978	-0.057561	11.00	15.00	7.75	12.25	0.25	3.25	0.00	0.25	0.00	0.00	0.00	0.00	0.00	0.00	0.00	0.00	-0.058594	0.238770	0.996582	-1.190000	-6.930000	1.960000	471.00	-0.331914	-0.085499
0.31	9.25	11.00	4.00	6.25	0.00	0.00	0.00	0.00	0.00	0.00	0.00	0.00	0.00	0.00	0.00	0.00	-0.019531	0.122070	0.965820	-1.050000	-4.900000	1.050000	284.00	-0.362290	-0.057470	11.25	15.00	7.75	12.25	0.00	3.00	0.00	0.25	0.00	0.00	0.00	0.00	0.00	0.00	0.00	0.00	-0.051270	0.234375	0.986328	-0.630000	-7.910000	2.170000	468.00	-0.334339	-0.084308
0.32	10.00	11.00	4.00	6.25	0.00	0.00	0.00	0.00	0.00	0.00	0.00	0.00	0.00	0.00	0.00	0.00	-0.008301	0.124512	0.960449	-1.400000	-2.730000	0.630000	291.00	-0.363295	-0.053407	11.25	15.00	7.75	12.25	0.25	2.75	0.00	0.00	0.00	0.00	0.00	0.00	0.00	0.00	0.00	0.00	-0.047363	0.229004	0.973145	-0.350000	-7.910000	2.240000	465.00	-0.336594	-0.080210
0.33	10.00	11.00	4.00	6.25	0.00	0.00	0.00	0.00	0.00	0.00	0.00	0.00	0.25	0.00	0.00	0.00	-0.005371	0.129395	0.953613	-1.820000	-0.560000	0.210000	293.00	-0.359667	-0.056188	11.25	15.00	7.75	12.25	0.00	2.75	0.00	0.25	0.00	0.00	0.00	0.00	0.00	0.00	0.00	0.00	-0.051758	0.237305	0.970215	-0.280000	-7.630000	2.100000	466.00	-0.335312	-0.083300
0.34	9.50	11.00	4.00	6.00	0.00	0.00	0.00	0.00	0.00	0.00	0.00	0.00	0.00	0.00	0.00	0.00	-0.007812	0.132812	0.938965	-1.890000	1.960000	0.280000	284.00	-0.363294	-0.054600	11.25	15.00	8.00	11.25	0.00	2.50	0.00	0.25	0.00	0.00	0.00	0.00	0.00	0.00	0.00	0.00	-0.047852	0.230957	0.972656	0.070000	-7.000000	1.820000	456.00	-0.336971	-0.078180
0.35	9.50	11.00	4.25	6.25	0.00	0.00	0.00	0.00	0.00	0.00	0.00	0.00	0.00	0.00	0.00	0.00	-0.007812	0.140137	0.962402	-2.170000	4.620000	0.350000	289.00	-0.361770	-0.054807	11.25	15.00	8.00	12.25	0.00	2.50	0.00	0.25	0.00	0.00	0.00	0.00	0.00	0.00	0.00	0.00	-0.045410	0.234863	0.965820	-0.000000	-6.440000	1.750000	466.00	-0.335907	-0.081341
0.36	9.50	10.25	4.25	6.50	0.00	0.00	0.00	0.00	0.00	0.00	0.00	0.00	0.00	0.00	0.00	0.00	-0.018066	0.127930	0.969238	-2.660000	6.160000	0.350000	285.00	-0.359899	-0.053837	11.25	15.00	7.50	12.25	0.25	2.50	0.00	0.25	0.00	0.00	0.00	0.00	0.00	0.00	0.00	0.00	-0.044434	0.236816	0.970215	-0.350000	-5.180000	1.540000	463.00	-0.335542	-0.082449
0.37	9.50	11.00	4.25	6.75	0.00	0.00	0.00	0.00	0.00	0.00	0.00	0.00	0.25	0.00	0.00	0.00	-0.016113	0.127441	0.966309	-2.730000	7.420000	0.350000	296.00	-0.356929	-0.060438	11.25	15.00	8.00	12.25	0.25	2.50	0.00	0.25	0.00	0.00	0.00	0.00	0.00	0.00	0.00	0.00	-0.040039	0.247070	0.962891	-0.770000	-4.130000	1.470000	468.00	-0.334778	-0.080576
0.38	9.50	11.25	4.25	6.75	0.00	0.00	0.00	0.00	0.00	0.00	0.00	0.00	0.00	0.00	0.00	0.00	-0.022461	0.120605	0.991211	-2.590000	8.610000	0.140000	296.00	-0.360903	-0.058485	11.25	15.00	8.50	12.50	0.25	2.75	0.00	0.25	0.00	0.00	0.00	0.00	0.00	0.00	0.00	0.00	-0.043457	0.239746	0.967773	-1.330000	-3.010000	1.470000	478.00	-0.332840	-0.080520
0.39	9.50	11.00	4.00	6.50	0.00	0.00	0.00	0.00	0.00	0.00	0.00	0.00	0.00	0.00	0.00	0.00	-0.030273	0.123047	1.000977	-2.380000	8.540000	-0.210000	289.00	-0.361978	-0.057561	11.00	15.00	8.00	12.25	0.25	2.75	0.00	0.25	0.00	0.00	0.00	0.00	0.00	0.00	0.00	0.00	-0.048340	0.240234	0.966797	-2.030000	-2.100000	1.330000	468.00	-0.333461	-0.082555
0.40	10.00	11.00	4.00	6.25	0.00	0.00	0.00	0.00	0.00	0.00	0.00	0.00	0.00	0.00	0.00	0.00	-0.030762	0.130859	1.001465	-1.470000	7.350000	-0.140000	291.00	-0.363295	-0.053407	11.25	15.25	8.00	12.25	0.25	3.00	0.00	0.25	0.00	0.00	0.00	0.00	0.00	0.00	0.00	0.00	-0.046875	0.235840	0.963867	-3.080000	-0.840000	1.260000	475.00	-0.333229	-0.082968
0.41	10.00	11.00	4.00	6.50	0.00	0.25	0.00	0.00	0.00	0.00	0.00	0.00	0.00	0.00	0.00	0.00	-0.030273	0.125488	1.000977	-1.330000	7.140000	0.000000	296.00	-0.360877	-0.056708	11.25	15.25	8.50	12.25	0.25	3.00	0.00	0.25	0.00	0.00	0.00	0.00	0.00	0.00	0.00	0.00	-0.050781	0.236328	0.977539	-3.710000	0.350000	0.980000	480.00	-0.332509	-0.081137
0.42	10.00	11.00	4.25	6.50	0.00	0.00	0.00	0.00	0.00	0.00	0.00	0.00	0.00	0.00	0.00	0.00	-0.030273	0.121094	1.004395	-1.190000	6.720000	0.000000	296.00	-0.361808	-0.053630	11.25	15.00	8.00	12.25	0.25	3.00	0.00	0.25	0.00	0.00	0.00	0.00	0.00	0.00	0.00	0.00	-0.057129	0.235352	0.984863	-3.990000	0.420000	0.980000	473.00	-0.332858	-0.082598
0.43	10.00	11.00	4.00	6.50	0.00	0.00	0.00	0.00	0.00	0.00	0.00	0.00	0.00	0.00	0.00	0.00	-0.034668	0.123535	1.007324	-1.120000	5.950000	-0.210000	293.00	-0.362647	-0.054874	11.25	15.00	7.75	11.25	0.25	2.75	0.00	0.25	0.00	0.00	0.00	0.00	0.00	0.00	0.00	0.00	-0.051270	0.241211	0.974121	-4.410000	0.560000	1.050000	458.00	-0.335206	-0.079406
0.44	10.00	11.00	4.00	6.25	0.00	0.00	0.00	0.00	0.00	0.00	0.00	0.00	0.25	0.00	0.00	0.00	-0.033691	0.128906	1.000000	-0.980000	5.180000	-0.350000	293.00	-0.359667	-0.056188	11.25	15.00	7.75	12.25	0.25	3.75	0.00	0.25	0.00	0.00	0.00	0.00	0.00	0.00	0.00	0.00	-0.054688	0.233398	0.989258	-4.550000	0.840000	1.050000	478.00	-0.330398	-0.086487
0.45	10.00	11.00	4.00	6.25	0.00	0.25	0.00	0.00	0.00	0.00	0.00	0.00	0.00	0.00	0.00	0.00	-0.029297	0.125488	0.987305	-0.910000	4.970000	-0.280000	293.00	-0.361504	-0.055269	11.25	15.00	7.75	12.25	0.25	3.75	0.00	0.25	0.00	0.00	0.00	0.00	0.00	0.00	0.00	0.00	-0.057129	0.235352	0.982910	-4.970000	0.560000	1.050000	478.00	-0.330398	-0.086487
0.46	10.00	11.00	4.00	6.25	0.00	0.00	0.00	0.00	0.00	0.00	0.00	0.00	0.00	0.00	0.00	0.00	-0.024414	0.125000	0.975586	-1.050000	5.460000	-0.210000	291.00	-0.363295	-0.053407	11.25	15.00	7.75	12.25	0.00	3.75	0.00	0.25	0.00	0.00	0.00	0.00	0.00	0.00	0.00	0.00	-0.051270	0.231445	0.975098	-5.320000	0.700000	1.260000	476.00	-0.331481	-0.087268
0.47	10.00	11.00	4.25	6.25	0.00	0.00	0.00	0.00	0.00	0.00	0.00	0.00	0.00	0.00	0.00	0.00	-0.031250	0.130859	0.982422	-1.400000	6.230000	-0.350000	293.00	-0.362443	-0.052165	11.25	15.00	7.75	11.25	0.25	3.25	0.00	0.25	0.00	0.00	0.00	0.00	0.00	0.00	0.00	0.00	-0.052734	0.238281	0.975098	-5.670000	1.050000	1.190000	463.00	-0.333240	-0.081485
0.48	10.00	11.00	4.25	6.50	0.00	0.00	0.00	0.00	0.00	0.00	0.00	0.00	0.25	0.00	0.00	0.00	-0.030273	0.128906	0.980469	-1.540000	6.930000	-0.420000	298.00	-0.358252	-0.056362	11.25	15.00	8.00	11.25	0.25	3.25	0.00	0.25	0.00	0.00	0.00	0.00	0.00	0.00	0.00	0.00	-0.058105	0.234863	0.986816	-6.230000	1.610000	1.190000	466.00	-0.332868	-0.080549
0.49	10.00	11.00	4.25	6.50	0.00	0.00	0.00	0.00	0.00	0.00	0.00	0.00	0.00	0.00	0.00	0.00	-0.025391	0.126465	0.983398	-1.470000	7.420000	-0.280000	296.00	-0.361808	-0.053630	11.25	14.75	8.50	11.25	0.25	3.00	0.00	0.25	0.00	0.00	0.00	0.00	0.00	0.00	0.00	0.00	-0.058105	0.234863	0.986816	-6.230000	1.610000	1.190000	466.00	-0.332715	-0.077275
0.50	10.00	11.00	4.00	6.50	0.00	0.00	0.00	0.00	0.00	0.00	0.00	0.00	0.00	0.00	0.00	0.00	-0.035156	0.122559	0.986328	-1.400000	7.840000	-0.350000	293.00	-0.362647	-0.054874	11.25	15.00	8.00	11.25	0.25	4.00	0.00	0.25	0.00	0.00	0.00	0.00	0.00	0.00	0.00	0.00	-0.059570	0.231934	0.982422	-6.020000	1.260000	1.260000	473.00	-0.330018	-0.083583
0.51	10.25	10.25	4.00	6.50	0.00	0.00	0.00	0.00	0.00	0.00	0.00	0.00	0.00	0.00	0.00	0.00	-0.036621	0.128906	0.977539	-1.610000	8.260000	-0.420000	289.00	-0.361801	-0.051106	11.25	15.00	8.00	11.25	0.50	4.25	0.00	0.25	0.00	0.00	0.00	0.00	0.00	0.00	0.00	0.00	-0.057617	0.225098	0.982422	-5.950000	1.330000	1.260000	478.00	-0.328018	-0.083807
0.52	10.25	10.25	4.25	6.50	0.00	0.00	0.00	0.00	0.00	0.00	0.00	0.00	0.00	0.00	0.00	0.00	-0.026367	0.131348	0.970215	-1.610000	8.960000	-0.350000	292.00	-0.360958	-0.049878	11.00	15.00	8.00	11.25	0.25	3.75	0.00	0.25	0.00	0.00	0.00	0.00	0.00	0.00	0.00	0.00	-0.060547	0.229004	0.984863	-5.740000	1.400000	1.190000	468.00	-0.330592	-0.083550
0.53	10.00	11.00	4.25	6.50	0.00	0.00	0.00	0.00	0.00	0.00	0.00	0.00	0.00	0.00	0.00	0.00	-0.030273	0.133789	0.969238	-1.890000	10.500000	-0.280000	296.00	-0.361808	-0.053630	11.00	15.00	8.00	11.25	0.25	3.75	0.00	0.25	0.00	0.00	0.00	0.00	0.00	0.00	0.00	0.00	-0.060547	0.229004	0.984863	-5.740000	1.400000	1.190000	468.00	-0.330592	-0.083550
0.54	10.25	11.00	4.00	6.50	0.00	0.25	0.00	0.00	0.00	0.00	0.00	0.00	0.00	0.00	0.00	0.00	-0.032227	0.129395	0.962402	-2.100000	12.180000	-0.350000	298.00	-0.361215	-0.055393	11.00	14.75	7.75	11.25	0.25	3.75	0.00	0.25	0.00	0.00	0.00	0.00	0.00	0.00	0.00	0.00	-0.065918	0.228027	0.989746	-5.530000	1.190000	1.050000	464.00	-0.330560	-0.084127
0.55	10.25	11.00	4.00	6.25	0.00	0.00	0.00	0.00	0.00	0.00	0.00	0.00	0.00	0.00	0.00	0.00	-0.036133	0.126953	0.979492	-2.240000	13.720000	-0.420000	293.00	-0.363619	-0.052097	11.25	15.00	7.75	11.25	0.25	4.25	0.00	0.25	0.00	0.00	0.00	0.00	0.00	0.00	0.00	0.00	-0.063965	0.227539	0.990723	-5.460000	1.120000	1.050000	473.00	-0.329432	-0.085512
0.56	10.00	11.00	4.00	6.50	0.00	0.00	0.00	0.00	0.00	0.00	0.00	0.00	0.00	0.00	0.00	0.00	-0.050293	0.127930	0.999023	-2.240000	13.510000	-0.420000	293.00	-0.362647	-0.054874	11.25	15.00	8.00	11.25	0.00	4.25	0.00	0.50	0.00	0.00	0.00	0.00	0.00	0.00	0.00	0.00	-0.068359	0.222168	0.987305	-5.110000	0.630000	1.120000	477.00	-0.327851	-0.087584
0.57	10.00	10.25	4.00	6.50	0.00	0.25	0.00	0.00	0.00	0.00	0.00	0.00	0.00	0.00	0.00	0.00	-0.050293	0.127930	0.999023	-2.240000	13.510000	-0.420000	289.00	-0.359659	-0.054320	11.25	14.75	8.00	12.25	0.25	3.75	0.00	0.25	0.00	0.00	0.00	0.00	0.00	0.00	0.00	0.00	-0.062988	0.220703	0.986816	-4.550000	0.210000	1.260000	478.00	-0.329672	-0.085199
0.58	10.50	11.00	4.00	7.25	0.00	0.50	0.00	0.00	0.00	0.00	0.00	0.00	0.00	0.00	0.00	0.00	-0.055664	0.122559	1.008789	-1.890000	11.690000	-0.280000	310.00	-0.358078	-0.059991	11.25	14.75	8.00	12.25	0.50	4.00	0.00	0.50	0.00	0.00	0.00	0.00	0.00	0.00	0.00	0.00	-0.068359	0.223633	0.986328	-3.920000	-0.420000	1.400000	487.00	-0.325446	-0.087591
0.59	10.50	11.00	4.25	7.25	0.00	0.00	0.00	0.00	0.00	0.00	0.00	0.00	0.00	0.00	0.00	0.00	-0.048828	0.128906	0.986328	-1.890000	11.270000	-0.420000	308.00	-0.360635	-0.055316	11.25	14.75	8.00	12.25	0.25	3.75	0.00	0.50	0.00	0.00	0.00	0.00	0.00	0.00	0.00	0.00	-0.062988	0.227051	0.983887	-3.430000	-0.560000	1.260000	482.00	-0.327383	-0.087410
0.60	10.25	10.25	4.25	6.75	0.00	0.25	0.00	0.00	0.00	0.00	0.00	0.00	0.00	0.00	0.00	0.00	-0.051758	0.125977	0.988281	-1.890000	11.200000	-0.420000	297.00	-0.358589	-0.053226	11.00	14.50	7.75	12.25	0.25	4.25	0.00	0.50	0.00	0.00	0.00	0.00	0.00	0.00	0.00	0.00	-0.069824	0.224609	0.983887	-3.220000	-0.560000	1.330000	480.00	-0.325130	-0.090896
0.61	10.00	11.50	4.75	6.75	0.00	0.25	0.00	0.00	0.00	0.00	0.00	0.00	0.00	0.00	0.00	0.00	-0.054688	0.129395	0.999023	-2.100000	11.270000	-0.490000	310.00	-0.358685	-0.055948	11.00	14.75	8.00	11.25	0.25	4.25	0.00	0.50	0.00	0.00	0.00	0.00	0.00	0.00	0.00	0.00	-0.064453	0.225098	0.979980	-3.430000	-0.490000	1.400000	475.00	-0.326009	-0.087427
0.62	10.25	11.50	4.75	6.75	0.00	0.25	0.00	0.00	0.00	0.00	0.00	0.00	0.25	0.00	0.00	0.00	-0.066895	0.127930	1.007324	-2.170000	10.710000	-0.490000	314.00	-0.355673	-0.057280	11.00	14.75	8.00	11.25	0.25	4.25	0.00	0.50	0.00	0.00	0.00	0.00	0.00	0.00	0.00	0.00	-0.076172	0.225586	0.987793	-3.430000	-0.770000	1.470000	475.00	-0.326009	-0.087427
0.63	10.00	11.25	4.50	6.75	0.25	0.50	0.00	0.00	0.00	0.00	0.00	0.00	0.00	0.00	0.00	0.00	-0.060059	0.127930	0.989746	-2.030000	10.360000	-0.420000	310.00	-0.355516	-0.057185	11.00	14.50	8.00	11.25	0.50	4.25	0.00	0.25	0.00	0.00	0.00	0.00	0.00	0.00	0.00	0.00	-0.066895	0.226562	0.987793	-3.500000	-0.840000	1.540000	471.00	-0.326848	-0.084039
0.64	10.00	11.00	4.50	6.75	0.00	0.50	0.00	0.00	0.00	0.00	0.00	0.00	0.00	0.00	0.00	0.00	-0.053711	0.128906	0.977539	-2.030000	10.640000	-0.350000	306.00	-0.356985	-0.057409	11.00	14.50	7.75	11.25	0.25	3.75	0.00	0.50	0.00	0.00	0.00	0.00	0.00	0.00	0.00	0.00	-0.071289	0.223145	0.981445	-3.710000	-0.630000	1.540000	465.00	-0.327791	-0.086057
0.65	10.00	10.25	4.25	6.75	0.00	0.50	0.00	0.00	0.00	0.00	0.00	0.00	0.00	0.00	0.00	0.00	-0.057129	0.129883	0.983398	-2.310000	11.130000	-0.350000	297.00	-0.356503	-0.056358	11.00	14.50	7.75	12.25	0.25	4.25	0.00	0.50	0.00	0.00	0.00	0.00	0.00	0.00	0.00	0.00	-0.070312	0.221191	0.990234	-3.780000	-0.630000	1.610000	480.00	-0.325130	-0.090896
0.66	9.50	11.00	4.25	6.75	0.00	0.50	0.00	0.00	0.00	0.00	0.00	0.00	0.00	0.00	0.00	0.00	-0.061035	0.125488	0.995605	-2.730000	11.060000	-0.350000	299.00	-0.357032	-0.061299	11.00	14.50	7.75	12.50	0.25	4.25	0.00	0.50	0.00	0.00	0.00	0.00	0.00	0.00	0.00	0.00	-0.068848	0.213867	0.993652	-3.500000	-1.050000	1.680000	482.00	-0.324935	-0.091593
0.67	9.50	11.00	4.25	6.75	0.00	0.50	0.00	0.00	0.00	0.00	0.00	0.00	0.00	0.00	0.00	0.00	-0.067871	0.125977	0.991699	-2.730000	10.920000	-0.280000	299.00	-0.357032	-0.061299	11.00	14.75	8.00	12.25	0.25	4.25	0.00	0.50	0.00	0.00	0.00	0.00	0.00	0.00	0.00	0.00	-0.069336	0.224121	0.984863	-3.220000	-1.470000	1.680000	485.00	-0.325213	-0.090274
0.68	9.25	11.00	4.50	6.75	0.00	0.50	0.00	0.00	0.00	0.00	0.00	0.00	0.00	0.00	0.00	0.00	-0.072266	0.126953	0.994629	-3.080000	11.130000	-0.280000	299.00	-0.355881	-0.061361	11.00	14.75	8.00	12.25	0.25	4.25	0.00	0.75	0.00	0.00	0.00	0.00	0.00	0.00	0.00	0.00	-0.067871	0.225586	0.976074	-3.360000	-1.260000	1.680000	488.00	-0.322984	-0.092421
0.69	9.50	11.00	4.50	6.50	0.00	0.50	0.00	0.00	0.00	0.00	0.00	0.00	0.00	0.00	0.00	0.00	-0.073730	0.122559	1.017090	-2.660000	10.570000	-0.280000	299.00	-0.356832	-0.058638	11.00	14.75	8.00	12.25	0.50	4.25	0.00	0.75	0.00	0.00	0.00	0.00	0.00	0.00	0.00	0.00	-0.071289	0.226074	0.981445	-3.920000	-0.770000	1.820000	491.00	-0.321973	-0.091634
0.70	9.50	10.25	4.50	6.75	0.00	0.50	0.00	0.00	0.00	0.00	0.00	0.00	0.00	0.00	0.00	0.00	-0.070801	0.120117	1.000000	-2.380000	9.450000	-0.490000	295.00	-0.354961	-0.057750	11.00	14.75	7.75	12.25	0.25	4.00	0.00	0.50	0.00	0.00	0.00	0.00	0.00	0.00	0.00	0.00	-0.072266	0.222168	0.987305	-4.410000	-0.280000	1.890000	480.00	-0.326429	-0.090282
0.71	9.50	10.25	4.25	6.75	0.00	0.50	0.00	0.00	0.00	0.00	0.00	0.00	0.00	0.00	0.00	0.00	-0.067383	0.126953	0.991699	-2.310000	9.380000	-0.420000	292.00	-0.355743	-0.059034	11.00	14.50	7.75	12.25	0.25	4.25	0.00	0.50	0.00	0.00	0.00	0.00	0.00	0.00	0.00	0.00	-0.078613	0.221191	0.989258	-4.060000	-0.560000	1.820000	480.00	-0.325130	-0.090896
0.72	9.50	10.00	4.25	6.50	0.00	0.50	0.00	0.00	0.00	0.00	0.00	0.00	0.00	0.00	0.00	0.00	-0.077637	0.122559	1.000000	-1.680000	8.750000	-0.210000	288.00	-0.355891	-0.056804	10.50	14.25	8.00	11.25	0.25	4.25	0.00	0.50	0.00	0.00	0.00	0.00	0.00	0.00	0.00	0.00	-0.074707	0.213379	0.987793	-3.710000	-0.980000	1.820000	466.00	-0.324402	-0.088711
0.73	9.25	11.00	4.25	6.75	0.25	0.50	0.00	0.00	0.00	0.00	0.00	0.00	0.00	0.00	0.00	0.00	-0.077637	0.122559	1.000000	-1.680000	8.750000	-0.210000	299.00	-0.354716	-0.061617	10.50	14.50	8.50	11.25	0.25	4.25	0.00	0.50	0.00	0.00	0.00	0.00	0.00	0.00	0.00	0.00	-0.067383	0.218262	0.987305	-3.640000	-1.050000	1.890000	473.00	-0.324176	-0.087134
0.74	9.25	11.00	4.50	6.75	0.00	0.50	0.00	0.00	0.00	0.00	0.00	0.00	0.00	0.00	0.00	0.00	-0.072754	0.124512	0.993164	-1.540000	8.120000	-0.280000	299.00	-0.355881	-0.061361	11.00	14.50	8.75	12.25	0.25	4.25	0.00	0.50	0.00	0.00	0.00	0.00	0.00	0.00	0.00	0.00	-0.078125	0.219727	0.984863	-3.850000	-1.120000	2.030000	490.00	-0.323886	-0.087142
0.75	9.50	10.25	4.50	6.75	0.00	0.25	0.00	0.00	0.00	0.00	0.00	0.00	0.25	0.00	0.00	0.00	-0.075684	0.126465	0.984375	-1.260000	8.050000	-0.210000	294.00	-0.353122	-0.058668	11.00	14.50	8.00	12.25	0.25	4.50	0.00	0.50	0.00	0.00	0.00	0.00	0.00	0.00	0.00	0.00	-0.072754	0.219727	0.983887	-3.920000	-1.400000	2.170000	485.00	-0.323929	-0.090881
0.76	9.50	10.00	4.25	6.50	0.00	0.00	0.00	0.00	0.00	0.00	0.00	0.00	0.00	0.00	0.00	0.00	-0.074707	0.129395	0.975098	-1.120000	9.170000	-0.140000	283.00	-0.359476	-0.053000	11.00	14.50	8.00	12.50	0.25	4.25	0.00	0.75	0.00	0.00	0.00	0.00	0.00	0.00	0.00	0.00	-0.070801	0.218262	0.981445	-4.760000	-0.770000	2.170000	488.00	-0.322399	-0.092784
0.77	9.25	10.00	4.50	6.50	0.25	0.50	0.00	0.00	0.00	0.00	0.00	0.00	0.00	0.00	0.00	0.00	-0.079102	0.126953	0.998047	-0.770000	9.590000	-0.070000	290.00	-0.352714	-0.055849	11.00	14.50	8.50	12.50	0.25	4.25	0.00	0.50	0.00	0.00	0.00	0.00	0.00	0.00	0.00	0.00	-0.070801	0.218262	0.981445	-4.760000	-0.770000	2.170000	490.00	-0.324005	-0.088766
0.78	9.25	10.00	4.50	6.50	0.00	0.75	0.00	0.00	0.00	0.00	0.00	0.00	0.00	0.00	0.00	0.00	-0.078613	0.122559	0.995117	-0.770000	9.030000	0.000000	290.00	-0.352963	-0.058722	11.00	14.50	8.50	12.25	0.25	4.25	0.00	0.50	0.00	0.00	0.00	0.00	0.00	0.00	0.00	0.00	-0.075195	0.219238	0.993164	-4.900000	-0.770000	2.240000	488.00	-0.324192	-0.088066
0.79	9.25	10.00	4.50	6.75	0.00	0.50	0.00	0.00	0.00	0.00	0.00	0.00	0.00	0.00	0.00	0.00	-0.077637	0.125977	0.983398	-0.560000	9.240000	-0.140000	290.00	-0.354118	-0.058322	11.00	14.50	8.00	12.25	0.25	4.25	0.00	0.75	0.00	0.00	0.00	0.00	0.00	0.00	0.00	0.00	-0.078613	0.215820	0.998047	-3.990000	-1.400000	2.310000	486.00	-0.322579	-0.092102
0.80	9.25	9.75	4.50	6.75	0.00	0.50	0.00	0.00	0.00	0.00	0.00	0.00	0.25	0.00	0.00	0.00	-0.082031	0.129395	0.980957	-0.770000	9.870000	-0.210000	290.00	-0.350068	-0.060312	11.00	14.50	8.00	11.25	0.25	4.25	0.00	0.75	0.00	0.00	0.00	0.00	0.00	0.00	0.00	0.00	-0.074707	0.212891	0.984863	-3.570000	-1.610000	2.380000	476.00	-0.323316	-0.089303
0.81	9.25	10.00	4.50	6.75	0.00	0.50	0.00	0.00	0.00	0.00	0.00	0.00	0.25	0.00	0.00	0.00	-0.089355	0.125488	0.989746	-1.120000	10.080000	-0.210000	292.00	-0.350548	-0.061074	10.50	14.25	8.00	11.25	0.00	4.25	0.00	0.75	0.00	0.00	0.00	0.00	0.00	0.00	0.00	0.00	-0.074707	0.212891	0.984863	-3.570000	-1.610000	2.380000	467.00	-0.323148	-0.091777
0.82	9.25	10.00	4.50	6.75	0.00	0.50	0.00	0.25	0.00	0.00	0.00	0.00	0.25	0.00	0.00	0.00	-0.085938	0.127441	0.999512	-0.630000	9.800000	0.000000	296.00	-0.346573	-0.064960	11.00	14.25	7.75	11.25	0.25	4.25	0.00	0.75	0.00	0.00	0.00	0.00	0.00	0.00	0.00	0.00	-0.073730	0.215820	0.986816	-3.710000	-1.470000	2.450000	471.00	-0.323213	-0.089927
0.83	9.25	9.75	4.50	6.75	0.00	0.50	0.00	0.00	0.00	0.00	0.00	0.00	0.00	0.00	0.00	0.00	-0.088379	0.128418	0.999023	-0.840000	9.310000	0.000000	288.00	-0.353661	-0.057535	11.00	14.25	8.00	11.25	0.25	4.25	0.00	0.75	0.00	0.00	0.00	0.00	0.00	0.00	0.00	0.00	-0.076172	0.220703	0.984375	-4.480000	-0.980000	2.450000	474.00	-0.322902	-0.088961
0.84	9.25	9.75	4.50	6.75	0.00	0.50	0.00	0.00	0.00	0.00	0.00	0.00	0.00	0.00	0.00	0.00	-0.090332	0.124512	1.001953	-1.470000	8.820000	-0.280000	288.00	-0.353661	-0.057535	11.00	14.25	8.50	11.25	0.25	4.25	0.00	0.75	0.00	0.00	0.00	0.00	0.00	0.00	0.00	0.00	-0.078125	0.214355	0.981934	-4.830000	-0.840000	2.380000	479.00	-0.322289	-0.087061
0.85	9.25	9.75	4.50	6.75	0.00	0.75	0.00	0.00	0.00	0.00	0.00	0.00	0.00	0.00	0.00	0.00	-0.090820	0.128418	1.009277	-1.120000	8.260000	-0.210000	291.00	-0.351938	-0.059378	11.00	14.25	8.00	12.25	0.25	4.25	0.00	1.00	0.00	0.00	0.00	0.00	0.00	0.00	0.00	0.00	-0.079102	0.215820	0.991699	-4.690000	-0.840000	2.310000	487.00	-0.319959	-0.093920
0.86	9.25	10.25	4.50	6.75	0.00	0.75	0.00	0.00	0.00	0.00	0.00	0.00	0.00	0.00	0.00	0.00	-0.094238	0.123535	1.003418	-0.910000	7.490000	-0.140000	295.00	-0.352862	-0.060902	10.50	14.25	8.50	12.25	0.50	4.25	0.00	1.00	0.00	0.00	0.00	0.00	0.00	0.00	0.00	0.00	-0.082031	0.214355	0.993652	-4.480000	-1.120000	2.520000	490.00	-0.317589	-0.093175
0.87	9.25	10.25	4.50	6.75	0.00	0.75	0.00	0.25	0.00	0.00	0.00	0.00	0.00	0.00	0.00	0.00	-0.082520	0.129395	0.996582	-1.190000	6.930000	-0.280000	298.00	-0.348895	-0.064757	10.50	14.25	8.00	12.25	0.25	4.25	0.00	0.75	0.00	0.00	0.00	0.00	0.25	0.00	0.00	0.00	-0.078613	0.215332	0.982910	-4.620000	-1.190000	2.520000	481.00	-0.319333	-0.095287
0.88	9.00	10.25	4.50	6.75	0.00	0.75	0.00	0.00	0.00	0.00	0.00	0.00	0.00	0.00	0.00	0.00	-0.086914	0.134766	0.978027	-1.610000	7.210000	-0.140000	293.00	-0.352453	-0.062275	11.00	14.25	8.00	11.25	0.25	4.25	0.00	0.75	0.00	0.00	0.00	0.00	0.25	0.00	0.00	0.00	-0.082031	0.209473	0.980957	-5.040000	-0.770000	2.520000	476.00	-0.320839	-0.090523
0.89	9.25	10.00	4.50	6.75	0.00	0.75	0.00	0.00	0.00	0.00	0.00	0.00	0.25	0.00	0.00	0.00	-0.093262	0.132812	0.982422	-2.030000	7.770000	0.140000	295.00	-0.348874	-0.062861	11.00	14.25	7.75	11.25	0.50	4.25	0.00	0.75	0.00	0.00	0.00	0.00	0.00	0.00	0.00	0.00	-0.083984	0.214844	0.980957	-5.880000	-0.210000	2.590000	474.00	-0.322164	-0.089125
0.90	9.50	9.75	4.50	6.75	0.00	0.75	0.00	0.00	0.00	0.00	0.00	0.00	0.25	0.00	0.00	0.00	-0.090332	0.127930	0.984375	-2.240000	7.910000	0.140000	295.00	-0.348828	-0.060747	11.00	14.25	8.00	11.25	0.50	4.25	0.00	0.75	0.00	0.00	0.00	0.00	0.00	0.00	0.00	0.00	-0.074707	0.220215	0.980469	-6.580000	0.280000	2.590000	476.00	-0.321860	-0.088169
0.91	9.50	10.00	4.50	6.75	0.00	0.75	0.00	0.00	0.00	0.00	0.00	0.00	0.00	0.00	0.00	0.00	-0.096191	0.124512	1.000488	-2.310000	7.630000	-0.070000	295.00	-0.352812	-0.058790	11.00	14.25	8.00	11.25	0.25	4.25	0.00	0.75	0.00	0.00	0.00	0.00	0.00	0.00	0.00	0.00	-0.082031	0.211914	0.984863	-7.000000	0.700000	2.660000	474.00	-0.322902	-0.088961
0.92	9.25	10.00	4.25	6.75	0.00	1.00	0.00	0.00	0.00	0.00	0.00	0.00	0.00	0.00	0.00	0.00	-0.099121	0.129883	0.995117	-1.750000	6.020000	-0.490000	293.00	-0.351460	-0.063256	11.00	14.00	8.00	11.25	0.00	4.25	0.00	0.75	0.00	0.00	0.00	0.00	0.00	0.00	0.00	0.00	-0.085938	0.204102	0.996582	-6.440000	0.420000	2.730000	469.00	-0.323538	-0.089419
0.93	9.00	10.00	4.50	6.75	0.00	1.25	0.00	0.00	0.00	0.00	0.00	0.00	0.25	0.00	0.00	0.00	-0.097168	0.125977	0.994629	-1.750000	5.880000	-0.490000	297.00	-0.345151	-0.067741	10.50	14.25	8.00	11.25	0.25	4.25	0.00	0.75	0.00	0.00	0.00	0.00	0.00	0.00	0.00	0.00	-0.083008	0.204590	0.994141	-5.740000	-0.070000	2.870000	469.00	-0.322089	-0.090958
0.94	9.25	10.25	4.50	6.75	0.25	1.25	0.00	0.00	0.00	0.00	0.00	0.00	0.00	0.00	0.00	0.00	-0.095215	0.123047	0.987305	-1.960000	5.880000	-0.840000	302.00	-0.347671	-0.063375	10.50	14.25	8.00	11.25	0.25	4.25	0.00	0.75	0.00	0.00	0.00	0.00	0.00	0.00	0.00	0.00	-0.076660	0.208984	0.984863	-5.600000	0.070000	3.010000	469.00	-0.322089	-0.090958
0.95	9.50	10.00	4.50	6.75	0.00	1.25	0.00	0.00	0.00	0.00	0.00	0.00	0.00	0.00	0.00	0.00	-0.095703	0.122070	0.979980	-1.890000	6.090000	-1.260000	300.00	-0.349487	-0.062339	10.50	14.25	8.00	11.25	0.50	4.25	0.00	0.75	0.00	0.00	0.00	0.00	0.00	0.00	0.00	0.00	-0.080078	0.211426	0.976074	-6.090000	0.490000	2.940000	472.00	-0.321042	-0.090147
0.96	9.50	10.00	4.50	6.75	0.00	1.25	0.00	0.25	0.00	0.00	0.00	0.00	0.25	0.00	0.00	0.00	-0.096680	0.119629	0.985840	-2.030000	6.440000	-1.610000	306.00	-0.342268	-0.068692	10.50	14.25	7.75	11.25	0.50	4.25	0.00	0.75	0.00	0.00	0.00	0.00	0.00	0.00	0.00	0.00	-0.080078	0.205566	0.981934	-6.790000	1.260000	3.010000	469.00	-0.321344	-0.091123
0.97	10.00	10.25	4.75	6.75	0.25	1.25	0.00	0.25	0.00	0.00	0.00	0.00	0.25	0.00	0.00	0.00	-0.098145	0.128418	0.988770	-1.820000	6.720000	-1.820000	318.00	-0.341339	-0.064392	10.50	14.25	8.50	11.25	0.25	4.25	0.00	0.75	0.00	0.00	0.00	0.00	0.00	0.00	0.00	0.00	-0.081055	0.203613	0.978516	-7.490000	1.960000	3.080000	474.00	-0.321479	-0.089017
0.98	10.00	11.00	4.75	6.75	0.00	1.25	0.00	0.00	0.00	0.00	0.00	0.00	0.25	0.00	0.00	0.00	-0.093750	0.135742	0.995117	-2.310000	6.720000	-1.890000	318.00	-0.348141	-0.063826	10.50	14.25	8.50	11.25	0.25	4.25	0.00	1.00	0.00	0.00	0.00	0.00	0.00	0.00	0.00	0.00	-0.080566	0.199219	0.981445	-8.120000	2.520000	3.220000	478.00	-0.319230	-0.091221
0.99	9.50	11.00	4.75	7.25	0.25	1.25	0.00	0.25	0.00	0.00	0.00	0.00	0.25	0.00	0.00	0.00	-0.103027	0.125977	0.988770	-2.870000	6.720000	-1.820000	324.00	-0.341069	-0.071389	10.00	14.00	8.00	11.25	0.25	4.25	0.00	1.00	0.00	0.00	0.00	0.00	0.00	0.00	0.00	0.00	-0.091797	0.202637	0.992188	-8.470000	2.940000	3.360000	466.00	-0.318523	-0.094895
1.00	9.50	10.00	4.50	7.25	0.50	1.50	0.00	0.25	0.00	0.00	0.00	0.00	0.25	0.00	0.00	0.00	-0.100586	0.123535	0.992188	-2.940000	6.510000	-1.750000	318.00	-0.336495	-0.070699	10.00	14.00	8.00	10.75	0.25	4.25	0.00	0.75	0.00	0.00	0.00	0.00	0.00	0.00	0.00	0.00	-0.089355	0.202637	0.989746	-8.610000	3.080000	3.360000	457.00	-0.321191	-0.091211
1.01	9.50	11.00	4.75	7.50	0.25	1.50	0.00	0.25	0.00	0.00	0.00	0.00	0.25	0.00	0.00	0.00	-0.098633	0.122070	0.983398	-3.080000	6.440000	-1.890000	329.00	-0.339233	-0.074082	10.00	13.75	7.75	10.75	0.25	4.25	0.00	1.00	0.00	0.00	0.00	0.00	0.00	0.00	0.00	0.00	-0.090332	0.200684	0.986816	-8.750000	3.290000	3.290000	456.00	-0.318708	-0.094167
1.02	9.50	11.25	4.75	7.50	0.00	1.50	0.00	0.25	0.00	0.00	0.00	0.00	0.25	0.00	0.00	0.00	-0.100098	0.121582	0.980469	-3.570000	6.720000	-2.380000	329.00	-0.341363	-0.075706	10.00	13.75	7.75	11.25	0.25	4.25	0.00	1.00	0.00	0.00	0.00	0.00	0.00	0.00	0.00	0.00	-0.086426	0.190918	0.977051	-9.170000	4.060000	3.360000	461.00	-0.318369	-0.095589
1.03	9.50	11.00	4.50	7.25	0.00	1.50	0.00	0.25	0.00	0.00	0.00	0.00	0.50	0.00	0.00	0.00	-0.108887	0.123535	0.998535	-3.220000	6.720000	-2.590000	324.00	-0.338742	-0.077641	10.00	13.75	7.75	11.25	0.25	4.25	0.00	1.00	0.00	0.00	0.00	0.00	0.25	0.00	0.00	0.00	-0.087891	0.202148	0.976562	-10.220000	5.180000	3.430000	463.00	-0.316269	-0.097166
1.04	9.50	11.00	4.50	7.25	0.25	1.25	0.00	0.25	0.00	0.00	0.00	0.00	0.50	0.00	0.00	0.00	-0.106934	0.127441	1.000977	-3.080000	6.160000	-2.660000	324.00	-0.338520	-0.075062	10.00	13.75	7.75	10.75	0.25	4.25	0.00	1.00	0.00	0.00	0.00	0.00	0.25	0.00	0.00	0.00	-0.087891	0.200684	0.978516	-13.510000	7.770000	3.220000	458.00	-0.316583	-0.095767
1.05	9.50	11.25	4.75	7.25	0.25	1.25	0.00	0.25	0.00	0.00	0.00	0.00	0.25	0.00	0.00	0.00	-0.103516	0.134277	0.987793	-3.360000	6.020000	-2.800000	326.00	-0.341556	-0.072000	9.75	13.50	7.50	10.75	0.50	4.25	0.00	1.25	0.00	0.00	0.00	0.00	0.00	0.00	0.00	0.00	-0.087891	0.200684	0.978516	-13.510000	7.770000	3.220000	455.00	-0.314705	-0.097335
1.06	9.25	11.25	4.75	7.25	0.00	1.25	0.25	0.50	0.00	0.00	0.00	0.00	0.25	0.00	0.00	0.00	-0.112793	0.140137	0.981445	-4.200000	6.370000	-2.310000	328.00	-0.334800	-0.074370	9.75	13.25	7.50	10.75	0.25	4.25	0.00	1.25	0.00	0.00	0.00	0.00	0.00	0.00	0.00	0.00	-0.096191	0.187988	0.995117	-14.560000	8.190000	3.080000	450.00	-0.315284	-0.097898
1.07	9.25	11.25	4.50	6.75	0.00	1.50	0.00	0.50	0.00	0.00	0.00	0.00	0.25	0.00	0.00	0.00	-0.108398	0.130859	0.989746	-5.320000	6.650000	-1.750000	320.00	-0.339199	-0.078315	9.75	13.25	7.50	10.75	0.25	4.25	0.00	1.25	0.00	0.00	0.00	0.00	0.25	0.00	0.00	0.00	-0.099609	0.185059	1.000977	-14.420000	7.770000	2.870000	452.00	-0.313148	-0.099502
1.08	9.50	11.25	4.50	7.25	0.25	1.50	0.00	0.25	0.00	0.00	0.00	0.00	0.25	0.25	0.00	0.00	-0.111816	0.123535	0.987793	-5.880000	6.300000	-1.190000	328.00	-0.336226	-0.073293	9.50	13.25	7.50	10.50	0.50	4.25	0.00	1.50	0.00	0.00	0.00	0.00	0.50	0.00	0.00	0.00	-0.104980	0.178711	1.006836	-12.670000	6.370000	3.150000	455.00	-0.307377	-0.102824
1.09	9.50	11.00	4.50	7.25	0.25	1.75	0.00	0.25	0.00	0.00	0.00	0.00	0.25	0.00	0.00	0.00	-0.111816	0.123535	0.987793	-5.880000	6.300000	-1.190000	327.00	-0.338782	-0.075715	9.50	13.25	6.75	10.50	0.50	4.25	0.00	1.50	0.00	0.00	0.00	0.00	0.25	0.00	0.00	0.00	-0.106445	0.178711	1.015137	-12.670000	6.370000	3.150000	446.00	-0.310229	-0.104519
1.10	9.50	11.00	4.50	7.25	0.25	1.50	0.25	0.50	0.00	0.00	0.00	0.00	0.25	0.00	0.00	0.00	-0.113281	0.116699	0.997070	-5.460000	5.810000	-1.190000	331.00	-0.332344	-0.074201	9.50	13.00	6.75	10.50	0.25	4.25	0.00	1.50	0.00	0.00	0.00	0.00	0.25	0.00	0.00	0.00	-0.106445	0.174316	1.013184	-8.820000	3.920000	3.290000	441.00	-0.310774	-0.105169
1.11	9.50	10.25	4.50	7.25	0.25	1.25	0.00	0.50	0.00	0.00	0.00	0.00	0.50	0.00	0.00	0.00	-0.111328	0.127930	0.979980	-5.320000	5.390000	-0.770000	321.00	-0.333446	-0.076702	9.50	12.75	6.25	10.50	0.25	4.25	0.00	1.50	0.00	0.00	0.00	0.00	0.25	0.00	0.00	0.00	-0.106934	0.178223	1.008301	-7.000000	2.800000	3.570000	434.00	-0.310793	-0.107160
1.12	9.50	11.00	4.50	6.75	0.25	1.25	0.25	0.50	0.00	0.00	0.00	0.00	0.75	0.25	0.00	0.00	-0.109863	0.127930	0.981445	-6.230000	5.810000	-0.560000	329.00	-0.323898	-0.073604	9.50	12.75	6.25	10.50	0.50	4.25	0.00	1.50	0.00	0.00	0.00	0.00	0.50	0.00	0.00	0.00	-0.107422	0.170898	1.005371	-5.460000	1.750000	3.710000	439.00	-0.307548	-0.107808
1.13	9.50	10.25	4.50	7.25	0.25	1.25	0.00	0.50	0.00	0.00	0.00	0.00	0.50	0.00	0.00	0.00	-0.114258	0.123535	0.981445	-6.930000	6.370000	-0.350000	321.00	-0.333446	-0.076702	9.50	12.50	6.25	10.50	0.50	4.25	0.00	2.00	0.00	0.00	0.00	0.00	0.50	0.00	0.00	0.00	-0.106445	0.183594	1.002930	-4.200000	0.910000	3.850000	443.00	-0.302401	-0.111985
1.14	9.50	10.00	4.50	7.25	0.25	1.50	0.00	0.50	0.00	0.00	0.00	0.25	0.50	0.00	0.00	0.00	-0.115234	0.116699	0.988770	-7.770000	6.650000	-0.210000	324.00	-0.327461	-0.079261	9.25	12.50	6.25	9.75	0.25	4.25	0.00	2.00	0.00	0.00	0.00	0.00	0.50	0.00	0.00	0.00	-0.113281	0.179688	1.000488	-3.360000	0.140000	3.780000	431.00	-0.303137	-0.112236
1.15	9.50	11.00	4.50	6.75	0.25	1.50	0.25	0.50	0.00	0.00	0.00	0.00	0.50	0.00	0.00	0.00	-0.113281	0.118652	0.985352	-8.120000	6.720000	-0.280000	328.00	-0.329978	-0.074252	9.50	12.25	6.25	9.75	0.50	4.50	0.00	2.00	0.00	0.00	0.00	0.00	0.50	0.00	0.00	0.00	-0.114258	0.179688	1.004395	-2.800000	-0.420000	3.780000	436.00	-0.301249	-0.110693
1.16	9.25	11.00	4.50	6.75	0.25	1.50	0.00	0.50	0.00	0.00	0.00	0.25	0.50	0.25	0.00	0.00	-0.120117	0.119141	0.985840	-8.540000	6.790000	-0.350000	327.00	-0.325399	-0.079091	9.25	11.75	6.25	9.75	0.50	4.50	0.00	2.00	0.00	0.00	0.00	0.00	0.50	0.00	0.00	0.00	-0.109863	0.174805	1.003906	-2.100000	-1.050000	3.780000	430.00	-0.299555	-0.111359
1.17	9.25	10.00	4.50	7.25	0.25	1.50	0.00	0.50	0.00	0.00	0.00	0.25	0.50	0.50	0.00	0.00	-0.114258	0.121582	0.977539	-9.450000	7.140000	-0.210000	325.00	-0.318019	-0.077544	9.00	11.50	6.00	9.75	0.25	4.50	0.00	2.00	0.00	0.00	0.00	0.00	0.50	0.00	0.00	0.00	-0.110352	0.176270	0.995117	-1.260000	-1.890000	3.850000	420.00	-0.299632	-0.114577
1.18	9.25	10.25	4.50	7.25	0.25	1.50	0.25	0.50	0.00	0.00	0.00	0.00	0.50	0.00	0.00	0.00	-0.122070	0.123535	0.987793	-10.150000	7.490000	0.000000	324.00	-0.327099	-0.076129	9.25	11.50	6.00	10.50	0.00	4.50	0.00	2.00	0.00	0.00	0.00	0.00	0.50	0.00	0.00	0.00	-0.112305	0.179199	0.996582	-0.630000	-2.380000	3.850000	427.00	-0.301018	-0.116315
1.19	9.50	10.25	4.50	6.75	0.25	1.50	0.00	0.50	0.00	0.00	0.00	0.00	0.75	0.00	0.00	0.00	-0.121582	0.111816	0.988281	-10.150000	7.490000	0.140000	320.00	-0.329625	-0.078302	9.25	11.00	6.00	9.75	0.00	4.25	0.00	2.00	0.00	0.00	0.00	0.00	0.50	0.00	0.00	0.00	-0.105469	0.175293	0.991699	-0.350000	-2.660000	3.850000	413.00	-0.300981	-0.112887
1.20	9.50	10.00	4.50	6.75	0.25	1.50	0.00	0.50	0.00	0.00	0.00	0.25	0.75	0.00	0.00	0.00	-0.115723	0.112793	0.991211	-10.430000	7.210000	0.000000	321.00	-0.324994	-0.079361	9.00	11.50	6.00	9.75	0.00	4.25	0.00	2.00	0.00	0.00	0.00	0.00	0.50	0.00	0.00	0.00	-0.106445	0.174805	0.997559	-0.070000	-2.870000	3.850000	415.00	-0.301570	-0.114692
1.21	9.50	9.75	4.50	6.75	0.25	1.75	0.00	0.50	0.00	0.00	0.00	0.00	0.50	0.00	0.00	0.00	-0.119141	0.116211	0.998047	-10.150000	6.860000	0.140000	316.00	-0.330217	-0.076247	9.00	11.00	6.00	9.25	0.25	4.25	0.00	2.00	0.00	0.00	0.00	0.00	0.50	0.00	0.00	0.00	-0.107910	0.178223	0.995117	0.140000	-3.080000	3.850000	408.00	-0.299472	-0.111726
1.22	9.50	10.00	4.50	7.25	0.25	1.75	0.00	0.50	0.00	0.00	0.00	0.25	0.75	0.00	0.00	0.00	-0.125977	0.107422	0.994629	-9.380000	6.230000	0.490000	328.00	-0.323112	-0.083054	9.00	10.75	6.00	9.25	0.25	4.25	0.00	2.00	0.00	0.00	0.00	0.25	0.50	0.00	0.00	0.00	-0.109375	0.181152	0.997559	0.350000	-3.360000	3.850000	409.00	-0.295864	-0.112530
1.23	9.50	10.00	4.75	7.25	0.25	1.50	0.25	0.50	0.00	0.00	0.00	0.25	0.75	0.00	0.00	0.00	-0.125977	0.103027	0.997070	-8.610000	5.810000	0.420000	332.00	-0.319709	-0.076879	8.75	10.75	5.75	9.25	0.25	4.25	0.00	2.00	0.00	0.00	0.00	0.25	0.50	0.00	0.00	0.00	-0.112793	0.178711	1.001953	0.350000	-3.500000	3.850000	404.00	-0.295426	-0.115103
1.24	9.50	10.00	4.75	7.25	0.25	1.50	0.25	0.50	0.00	0.00	0.00	0.25	0.50	0.00	0.00	0.00	-0.117188	0.109863	0.989746	-6.230000	4.200000	0.490000	330.00	-0.322668	-0.074551	8.75	10.75	5.75	9.25	0.00	4.25	0.00	2.00	0.00	0.00	0.00	0.00	0.50	0.00	0.00	0.00	-0.104492	0.180176	0.993652	0.420000	-3.640000	3.710000	399.00	-0.299551	-0.115123
1.25	9.50	10.00	4.75	7.25	0.25	1.75	0.25	0.50	0.00	0.00	0.00	0.25	0.50	0.00	0.00	0.00	-0.117188	0.109863	0.989746	-6.230000	4.200000	0.490000	332.00	-0.321391	-0.076037	8.75	10.50	5.75	9.75	0.00	4.25	0.00	2.00	0.00	0.00	0.00	0.00	0.50	0.00	0.00	0.00	-0.099121	0.181641	0.992676	0.560000	-3.780000	3.640000	402.00	-0.298788	-0.116226
1.26	9.50	10.00	4.75	7.50	0.25	2.00	0.25	0.50	0.00	0.00	0.00	0.00	0.25	0.00	0.00	0.00	-0.125000	0.112305	0.984375	-5.950000	4.130000	0.560000	333.00	-0.326664	-0.074728	8.75	10.75	5.75	9.75	0.00	4.25	0.00	2.00	0.00	0.00	0.00	0.00	0.50	0.00	0.00	0.00	-0.106445	0.180176	0.992188	0.420000	-3.710000	3.710000	404.00	-0.299402	-0.116487
1.27	9.50	10.00	4.75	7.50	0.25	2.00	0.00	0.50	0.00	0.00	0.00	0.00	0.25	0.00	0.00	0.00	-0.117676	0.105469	0.985352	-6.090000	4.410000	0.770000	329.00	-0.330973	-0.078088	8.75	11.00	5.75	9.25	0.25	4.25	0.00	2.00	0.00	0.00	0.00	0.00	0.50	0.00	0.00	0.00	-0.110840	0.181641	0.992676	0.350000	-3.780000	3.710000	403.00	-0.299077	-0.114291
1.28	9.50	10.00	4.75	7.25	0.50	2.00	0.00	0.50	0.00	0.00	0.00	0.25	0.50	0.00	0.00	0.00	-0.124023	0.102051	0.999512	-6.160000	4.410000	0.560000	334.00	-0.322851	-0.079801	8.75	10.75	5.50	9.25	0.25	4.25	0.00	2.25	0.00	0.00	0.00	0.00	0.50	0.00	0.00	0.00	-0.112305	0.182129	0.988770	0.490000	-4.060000	3.640000	402.00	-0.296198	-0.117710
1.29	10.00	10.00	4.75	7.25	0.50	2.00	0.00	0.50	0.00	0.00	0.00	0.25	0.75	0.00	0.00	0.00	-0.125000	0.101074	0.986328	-5.810000	4.060000	0.630000	340.00	-0.321087	-0.079414	8.50	10.50	5.75	9.25	0.00	4.25	0.00	2.25	0.00	0.00	0.00	0.00	0.75	0.00	0.00	0.00	-0.112305	0.182129	0.988770	0.490000	-4.060000	3.640000	400.00	-0.293484	-0.120314
1.30	10.00	10.00	4.75	7.50	0.50	2.00	0.25	0.50	0.00	0.00	0.00	0.00	0.75	0.00	0.00	0.00	-0.125977	0.109863	0.979004	-5.950000	4.130000	0.700000	344.00	-0.320498	-0.075694	8.50	10.50	5.50	9.25	0.00	4.25	0.00	2.00	0.00	0.00	0.00	0.00	0.50	0.00	0.00	0.00	-0.103027	0.175781	0.992676	0.700000	-4.270000	3.570000	392.00	-0.298517	-0.117534
1.31	9.50	10.00	4.75	7.50	0.50	2.00	0.25	0.50	0.00	0.00	0.00	0.00	0.50	0.00	0.00	0.00	-0.123047	0.111328	0.984863	-6.510000	4.550000	0.910000	337.00	-0.322231	-0.076003	8.50	10.00	5.50	9.25	0.25	4.25	0.00	2.00	0.00	0.00	0.00	0.00	0.50	0.00	0.00	0.00	-0.108398	0.184082	0.992676	0.840000	-4.410000	3.500000	390.00	-0.296127	-0.115858
1.32	9.50	10.00	4.75	7.50	0.50	2.25	0.25	0.50	0.00	0.00	0.00	0.25	0.50	0.00	0.00	0.00	-0.125488	0.103027	0.985352	-7.350000	5.040000	0.840000	342.00	-0.317243	-0.078984	8.50	10.00	5.50	9.25	0.25	4.25	0.00	2.00	0.00	0.00	0.00	0.00	0.75	0.00	0.00	0.00	-0.114258	0.184082	0.996094	0.770000	-4.480000	3.360000	392.00	-0.293760	-0.117616
1.33	10.00	10.00	4.75	7.50	0.50	2.50	0.25	0.50	0.00	0.00	0.00	0.25	0.75	0.00	0.00	0.00	-0.129395	0.103516	0.982910	-8.120000	5.460000	0.980000	351.00	-0.314473	-0.079998	8.50	10.00	5.00	8.75	0.25	4.25	0.00	2.00	0.00	0.00	0.00	0.00	0.50	0.00	0.00	0.00	-0.114258	0.184082	0.996094	0.770000	-4.480000	3.360000	380.00	-0.296652	-0.117175
1.34	10.00	10.00	4.75	7.50	0.50	2.50	0.25	0.50	0.00	0.00	0.00	0.25	0.50	0.25	0.00	0.00	-0.126465	0.095215	0.985352	-8.260000	5.460000	1.050000	351.00	-0.313179	-0.076399	8.25	9.75	5.00	8.75	0.00	4.25	0.00	2.00	0.00	0.00	0.00	0.00	0.50	0.00	0.00	0.00	-0.103516	0.181152	0.990234	0.700000	-4.550000	3.290000	373.00	-0.296451	-0.119534
1.35	9.50	9.75	4.75	7.50	0.25	2.25	0.25	0.50	0.00	0.00	0.00	0.25	0.25	0.00	0.00	0.00	-0.124512	0.096191	0.986816	-8.260000	5.740000	1.050000	335.00	-0.320948	-0.077212	8.25	10.00	5.50	8.75	0.00	4.00	0.00	2.00	0.00	0.00	0.00	0.00	0.50	0.00	0.00	0.00	-0.107422	0.182129	0.982422	-0.140000	-4.480000	3.150000	378.00	-0.297652	-0.115961
1.36	10.25	10.00	4.75	7.75	0.50	2.00	0.25	0.50	0.00	0.00	0.00	0.50	0.25	0.00	0.00	0.00	-0.124512	0.103027	0.991211	-8.400000	5.740000	0.980000	350.00	-0.319094	-0.074148	8.50	9.75	5.50	8.75	0.00	4.00	0.00	2.00	0.00	0.00	0.00	0.00	0.50	0.00	0.00	0.00	-0.105469	0.188477	0.985352	-0.770000	-4.130000	3.010000	378.00	-0.297651	-0.114274
1.37	10.25	10.00	4.75	7.50	0.50	2.00	0.00	0.50	0.00	0.00	0.00	0.25	0.25	0.00	0.00	0.00	-0.130371	0.095703	0.990234	-7.910000	5.530000	1.120000	341.00	-0.327144	-0.074709	8.50	9.75	5.00	8.75	0.00	3.75	0.00	2.25	0.00	0.00	0.00	0.00	0.50	0.00	0.00	0.00	-0.106934	0.185547	0.987305	-1.400000	-3.710000	2.940000	374.00	-0.296406	-0.118579
1.38	10.00	10.00	4.75	7.50	0.25	2.00	0.25	0.50	0.00	0.00	0.00	0.25	0.00	0.00	0.00	0.00	-0.129883	0.096191	0.991211	-7.770000	5.530000	1.120000	338.00	-0.326837	-0.071449	8.25	9.75	5.00	8.75	0.00	3.75	0.00	2.25	0.00	0.00	0.00	0.00	0.50	0.00	0.00	0.00	-0.106934	0.183105	0.979004	-1.960000	-3.500000	2.940000	372.00	-0.295724	-0.120028
1.39	10.25	10.00	4.75	7.50	0.50	2.00	0.25	0.50	0.00	0.00	0.00	0.25	0.25	0.00	0.00	0.00	-0.125000	0.100098	0.980957	-8.190000	5.880000	1.330000	345.00	-0.323024	-0.071500	8.50	9.50	5.00	8.25	0.00	4.00	0.00	2.25	0.00	0.00	0.00	0.00	0.75	0.00	0.00	0.00	-0.115234	0.183594	1.000977	-1.960000	-3.640000	3.010000	371.00	-0.292376	-0.119750
1.40	10.25	11.00	4.75	7.75	0.50	2.25	0.25	0.50	0.00	0.00	0.00	0.00	0.75	0.00	0.00	0.00	-0.127930	0.089355	0.982910	-8.960000	6.440000	1.400000	360.00	-0.321901	-0.079001	8.75	9.50	4.75	8.25	0.00	3.75	0.00	2.25	0.00	0.00	0.00	0.00	0.75	0.00	0.00	0.00	-0.108887	0.185059	0.993652	-1.330000	-4.200000	3.010000	369.00	-0.294221	-0.118696
1.41	10.00	11.00	4.75	7.75	0.50	2.25	0.25	0.50	0.00	0.00	0.00	0.00	0.75	0.00	0.00	0.00	-0.128906	0.087891	0.986816	-9.310000	6.510000	1.260000	357.00	-0.321361	-0.080246	8.50	9.50	5.00	8.75	0.00	4.00	0.00	2.00	0.00	0.00	0.00	0.00	0.75	0.00	0.00	0.00	-0.104004	0.181641	0.984375	-1.190000	-4.480000	3.080000	373.00	-0.294922	-0.118628
1.42	10.50	10.00	4.75	7.75	0.50	2.50	0.25	0.50	0.00	0.00	0.00	0.00	0.75	0.00	0.00	0.00	-0.131348	0.086914	0.990234	-8.890000	6.090000	1.260000	356.00	-0.319017	-0.077047	8.50	9.50	4.75	8.25	0.25	4.25	0.00	2.00	0.00	0.00	0.00	0.00	0.75	0.00	0.00	0.00	-0.111328	0.183594	1.000488	-1.750000	-4.130000	3.150000	370.00	-0.293116	-0.118437
1.43	10.50	10.00	5.00	7.75	0.50	2.25	0.25	0.50	0.00	0.00	0.00	0.25	0.50	0.00	0.00	0.00	-0.131348	0.086914	0.990234	-8.190000	5.600000	1.260000	357.00	-0.318951	-0.073818	8.50	9.50	4.75	8.25	0.25	4.25	0.00	2.00	0.00	0.00	0.00	0.00	1.00	0.00	0.00	0.00	-0.112793	0.178223	1.017090	-0.490000	-4.340000	3.150000	372.00	-0.290638	-0.120276
1.44	10.00	9.75	4.75	7.75	0.50	2.75	0.25	0.50	0.00	0.00	0.00	0.50	0.50	0.00	0.00	0.00	-0.137207	0.088867	0.990723	-7.070000	5.110000	1.330000	355.00	-0.311693	-0.081186	8.25	9.50	5.00	8.25	0.00	4.25	0.00	2.25	0.00	0.00	0.00	0.00	1.00	0.00	0.00	0.00	-0.106934	0.181641	0.999512	1.260000	-4.620000	3.010000	373.00	-0.288272	-0.124045
1.45	10.00	9.50	5.25	8.00	0.50	2.75	0.25	0.75	0.00	0.00	0.00	0.25	0.25	0.00	0.00	0.00	-0.136230	0.082520	0.988770	-6.930000	4.690000	1.470000	359.00	-0.313527	-0.078722	8.25	9.25	4.75	8.25	0.00	4.00	0.00	2.00	0.00	0.00	0.00	0.00	1.00	0.00	0.00	0.00	-0.114746	0.177734	1.015137	2.800000	-5.040000	3.010000	363.00	-0.291265	-0.121715
1.46	10.25	10.25	5.25	7.75	0.50	3.00	0.25	0.75	0.00	0.00	0.00	0.00	0.25	0.00	0.00	0.00	-0.135254	0.081543	0.994141	-6.370000	4.200000	1.400000	365.00	-0.318425	-0.077904	8.00	9.25	4.75	8.25	0.00	4.25	0.00	2.00	0.00	0.00	0.00	0.00	0.75	0.00	0.00	0.00	-0.111816	0.179688	1.014160	5.460000	-6.300000	3.220000	361.00	-0.292116	-0.122391
1.47	10.25	11.00	5.25	7.75	0.50	3.00	0.25	0.75	0.00	0.00	0.00	0.00	0.50	0.00	0.00	0.00	-0.134277	0.082031	0.986328	-5.530000	3.570000	1.330000	374.00	-0.317483	-0.081443	8.00	9.25	4.75	7.75	0.00	4.25	0.00	2.00	0.00	0.00	0.00	0.00	0.75	0.00	0.00	0.00	-0.109375	0.185059	1.000000	7.700000	-7.490000	3.360000	356.00	-0.292180	-0.120946
1.48	10.25	10.25	5.25	8.25	0.50	2.75	0.25	0.75	0.00	0.00	0.00	0.00	0.75	0.00	0.00	0.00	-0.135254	0.082031	0.988770	-4.900000	3.010000	1.330000	372.00	-0.313891	-0.082697	7.50	9.00	4.75	7.75	0.00	3.75	0.00	2.25	0.00	0.00	0.00	0.00	0.75	0.00	0.00	0.00	-0.107422	0.188965	1.001465	9.100000	-8.330000	3.430000	348.00	-0.289116	-0.124336
1.49	10.50	10.25	5.25	8.25	0.50	3.50	0.25	0.75	0.00	0.00	0.00	0.00	0.75	0.00	0.00	0.00	-0.136230	0.088867	0.991211	-4.410000	2.450000	1.610000	382.00	-0.311285	-0.085228	7.50	8.50	5.00	7.75	0.00	3.25	0.00	2.25	0.00	0.00	0.00	0.00	0.75	0.00	0.00	0.00	-0.115723	0.181152	1.025879	11.620000	-10.360000	3.360000	341.00	-0.289362	-0.120052
1.50	10.50	11.25	5.25	8.00	0.50	3.75	0.25	0.75	0.00	0.00	0.00	0.25	0.75	0.00	0.00	0.00	-0.137207	0.086426	0.988770	-4.410000	1.960000	1.610000	393.00	-0.309487	-0.088553	7.50	8.50	4.75	7.25	0.00	3.25	0.00	2.00	0.00	0.00	0.00	0.00	0.75	0.00	0.00	0.00	-0.118164	0.168457	1.048340	16.870001	-14.140000	3.500000	330.00	-0.292494	-0.117214
1.51	10.50	11.50	5.25	8.25	0.50	3.75	0.25	0.75	0.00	0.00	0.00	0.50	0.50	0.00	0.00	0.00	-0.137207	0.083496	0.988770	-4.340000	1.400000	1.750000	398.00	-0.309169	-0.089209	7.50	8.50	4.75	7.25	0.00	3.00	0.00	2.00	0.00	0.00	0.00	0.00	0.75	0.00	0.00	0.00	-0.114258	0.178711	1.041016	22.540001	-17.780001	3.500000	327.00	-0.293560	-0.116031
1.52	10.50	11.25	5.25	8.75	0.50	3.75	0.25	0.75	0.00	0.00	0.00	0.25	0.50	0.00	0.00	0.00	-0.135742	0.077637	0.982910	-3.640000	0.490000	2.030000	398.00	-0.311472	-0.089261	7.50	8.50	4.50	7.25	0.00	3.00	0.00	2.00	0.00	0.00	0.00	0.00	0.75	0.00	0.00	0.00	-0.120117	0.181641	1.067871	28.840000	-21.770000	3.430000	325.00	-0.293781	-0.117644
1.53	11.00	11.25	5.25	8.75	0.75	4.00	0.25	0.75	0.00	0.00	0.00	0.25	0.50	0.00	0.00	0.00	-0.142578	0.073242	0.986816	-3.080000	-0.280000	2.170000	408.00	-0.310421	-0.087155	7.50	8.50	4.50	7.25	0.25	2.50	0.00	2.00	0.00	0.00	0.00	0.00	0.50	0.00	0.00	0.00	-0.118652	0.171875	1.083496	36.259998	-26.530001	3.220000	320.00	-0.297541	-0.111689
1.54	11.00	11.75	5.75	8.75	0.50	4.00	0.25	1.25	0.00	0.00	0.00	0.25	0.50	0.00	0.00	0.00	-0.140137	0.078125	0.999023	-1.960000	-1.260000	2.310000	422.00	-0.307124	-0.091716	7.50	8.25	4.25	7.00	0.00	2.50	0.00	1.75	0.00	0.00	0.00	0.00	0.50	0.00	0.00	0.00	-0.109863	0.183105	1.075684	43.959999	-31.219999	2.800000	307.00	-0.301708	-0.110306
1.55	11.25	12.50	6.00	8.75	0.75	4.25	0.25	1.25	0.00	0.00	0.00	0.00	0.75	0.00	0.00	0.00	-0.133301	0.079590	0.988770	-0.420000	-2.240000	2.590000	437.00	-0.307736	-0.091362	7.50	8.25	4.25	7.00	0.00	2.00	0.00	1.50	0.00	0.00	0.00	0.00	0.50	0.00	0.00	0.00	-0.113281	0.182617	1.091309	50.820000	-35.139999	2.310000	299.00	-0.307564	-0.104323
1.56	11.25	12.50	6.25	8.75	0.75	4.25	0.25	1.25	0.00	0.00	0.00	0.25	0.50	0.00	0.00	0.00	-0.136719	0.089844	0.998535	0.560000	-2.800000	2.870000	440.00	-0.306817	-0.089757	7.50	8.25	4.25	6.25	0.00	1.75	0.00	1.25	0.00	0.00	0.00	0.00	0.50	0.00	0.00	0.00	-0.104004	0.179199	1.118652	59.010002	-39.970001	1.400000	285.00	-0.313044	-0.096169
1.57	12.00	13.00	6.25	9.00	0.75	4.25	0.25	1.25	0.00	0.00	0.00	0.50	0.50	0.00	0.00	0.00	-0.128418	0.081055	0.985840	0.700000	-3.150000	3.150000	457.00	-0.306498	-0.089202	7.25	8.00	4.25	6.25	0.00	1.25	0.00	1.00	0.00	0.00	0.00	0.00	0.50	0.00	0.00	0.00	-0.083984	0.170898	1.082031	67.410004	-44.520000	-0.140000	272.00	-0.318234	-0.090408
1.58	12.25	13.00	6.25	9.00	0.75	4.25	0.25	1.50	0.00	0.00	0.00	0.50	0.50	0.00	0.00	0.00	-0.131836	0.084473	0.974609	1.050000	-3.500000	3.360000	462.00	-0.304782	-0.090464	7.25	7.75	3.50	6.25	0.00	1.00	0.00	0.50	0.00	0.00	0.00	0.00	0.50	0.00	0.00	0.00	-0.065430	0.180176	1.005859	76.650002	-45.290001	-5.600000	253.00	-0.329044	-0.085144
1.59	12.00	13.25	6.75	9.50	1.00	4.25	0.25	1.50	0.00	0.00	0.00	0.50	0.25	0.00	0.00	0.00	-0.131836	0.084473	0.974609	1.050000	-3.500000	3.360000	473.00	-0.305226	-0.088912	7.00	7.75	2.50	6.00	0.00	1.00	0.00	0.50	0.00	0.00	0.00	0.00	0.25	0.00	0.00	0.00	-0.065430	0.180176	1.005859	76.650002	-45.290001	-5.600000	236.00	-0.335700	-0.089968
1.60	12.75	13.50	7.00	9.50	1.00	4.25	0.25	1.50	0.00	0.00	0.00	0.50	0.75	0.00	0.00	0.00	-0.120117	0.089844	0.970215	-0.630000	-3.080000	3.500000	489.00	-0.303051	-0.088482	7.00	7.25	2.50	5.50	0.00	0.25	0.00	0.25	0.00	0.00	0.00	0.00	0.25	0.00	0.00	0.00	0.043945	-0.360840	1.052246	71.889999	-37.240002	-23.450001	216.00	-0.346788	-0.074165
1.61	12.75	13.50	7.75	10.25	1.00	4.50	0.25	1.50	0.00	0.00	0.00	0.50	0.75	0.00	0.00	0.00	-0.120117	0.089844	0.970215	-0.630000	-3.080000	3.500000	506.00	-0.301511	-0.088726	6.25	6.75	2.25	5.00	0.00	0.00	0.00	0.25	0.00	0.00	0.00	0.00	0.00	0.00	0.00	0.00	0.043945	-0.360840	1.052246	71.889999	-37.240002	-23.450001	193.00	-0.353650	-0.070564
1.62	12.75	13.75	8.00	10.75	1.00	4.50	0.25	1.75	0.00	0.00	0.00	0.50	0.75	0.00	0.00	0.00	-0.123535	0.095703	0.980469	-2.520000	-2.100000	3.360000	519.00	-0.299730	-0.091509	5.50	6.50	2.25	4.50	0.00	0.00	0.00	0.25	0.00	0.00	0.00	0.00	0.00	0.00	0.00	0.00	0.176758	-0.620117	1.173828	56.490002	-38.220001	-54.880001	178.00	-0.352783	-0.072239
1.63	13.00	14.25	8.50	11.00	1.25	4.50	0.25	1.75	0.00	0.00	0.25	0.50	0.75	0.00	0.00	0.00	-0.122070	0.089844	0.983398	-3.570000	-1.960000	3.290000	538.00	-0.297568	-0.089515	5.25	6.00	2.25	4.25	0.00	0.00	0.00	0.25	0.00	0.00	0.00	0.00	0.00	0.00	0.00	0.00	0.140625	-0.894531	1.350586	15.890000	-62.299999	-164.570007	169.00	-0.351452	-0.070175
1.64	13.25	14.00	8.50	11.25	1.25	4.75	0.25	1.75	0.00	0.00	0.25	0.50	0.75	0.00	0.00	0.00	-0.121582	0.089844	0.984375	-3.920000	-1.820000	3.290000	544.00	-0.296857	-0.089818	4.75	5.75	2.00	3.50	0.00	0.00	0.00	0.00	0.00	0.00	0.00	0.00	0.00	0.00	0.00	0.00	-0.016113	-1.050293	1.272461	-7.280000	-79.099998	-226.380005	149.00	-0.361498	-0.061915
1.65	13.25	14.50	8.75	11.25	1.25	4.75	0.25	1.75	0.00	0.25	0.25	0.50	0.75	0.00	0.00	0.00	-0.130859	0.084961	0.992188	-4.270000	-1.680000	3.150000	553.00	-0.295312	-0.088911	4.25	5.25	1.25	3.00	0.00	0.00	0.00	0.00	0.00	0.00	0.00	0.00	0.00	0.00	0.00	0.00	-0.108398	-0.938965	1.285645	-40.459999	-92.820000	-284.269989	127.00	-0.366808	-0.067495
1.66	13.25	14.50	9.00	11.25	1.50	5.00	0.25	2.00	0.00	0.25	0.25	0.50	0.75	0.00	0.00	0.00	-0.121582	0.082031	0.993164	-4.340000	-1.400000	3.010000	564.00	-0.292045	-0.090114	3.75	4.25	0.50	2.25	0.00	0.00	0.00	0.00	0.00	0.00	0.00	0.00	0.00	0.00	0.00	0.00	-0.182129	-0.580078	1.150391	-68.949997	-100.590004	-336.420013	99.00	-0.374685	-0.067704
1.67	13.25	14.75	9.25	11.25	1.50	5.00	0.25	2.00	0.00	0.25	0.50	0.50	0.75	0.00	0.00	0.00	-0.125488	0.082520	0.994629	-4.060000	-1.050000	2.870000	571.00	-0.290213	-0.089700	3.50	3.75	0.50	1.50	0.00	0.00	0.00	0.00	0.00	0.00	0.00	0.00	0.00	0.00	0.00	0.00	-0.221191	-0.494629	1.198730	-89.040001	-103.739998	-379.679993	85.00	-0.379523	-0.053803
1.68	13.50	14.50	9.25	11.50	1.50	5.50	0.25	2.25	0.00	0.25	0.25	0.50	0.75	0.00	0.00	0.00	-0.119141	0.084473	0.995117	-4.130000	-0.350000	2.590000	580.00	-0.289486	-0.092473	3.25	3.50	0.50	1.00	0.00	0.00	0.00	0.00	0.00	0.00	0.00	0.00	0.00	0.00	0.00	0.00	-0.180664	-0.039062	1.232422	-104.019997	-105.559998	-408.730011	75.00	-0.383855	-0.044384
1.69	13.50	14.50	9.00	11.50	1.75	5.50	0.50	2.25	0.00	0.25	0.50	0.50	1.00	0.00	0.00	0.00	-0.113281	0.082520	0.997559	-4.550000	0.840000	2.240000	588.00	-0.283038	-0.091966	3.00	3.00	0.50	0.75	0.00	0.00	0.00	0.00	0.00	0.00	0.00	0.00	0.00	0.00	0.00	0.00	-0.172852	0.191895	1.020996	-102.480003	-108.290001	-421.540009	66.00	-0.384712	-0.035292
1.70	13.25	14.50	9.00	11.50	2.00	5.25	0.50	2.50	0.00	0.50	0.50	0.50	0.75	0.00	0.00	0.00	-0.118652	0.087402	0.995117	-4.690000	1.540000	1.820000	589.00	-0.280255	-0.091244	2.50	2.25	0.25	0.75	0.00	0.00	0.00	0.00	0.00	0.00	0.00	0.00	0.00	0.00	0.00	0.00	-0.069336	0.285645	0.900391	-84.699997	-105.489998	-415.869995	53.00	-0.384976	-0.038603
1.71	13.00	14.50	9.00	11.50	2.00	5.00	0.50	2.50	0.25	0.50	0.50	0.50	0.75	0.00	0.00	0.00	-0.125000	0.082520	0.995117	-4.970000	2.240000	1.540000	587.00	-0.277566	-0.089418	2.25	2.00	0.00	0.25	0.00	0.00	0.00	0.00	0.00	0.00	0.00	0.00	0.00	0.00	0.00	0.00	-0.202148	0.316895	0.811035	-77.209999	-97.300003	-400.679993	41.00	0.000000	0.000000
1.72	13.00	14.50	9.00	11.25	2.00	5.00	0.50	2.50	0.25	0.50	0.50	0.50	1.00	0.00	0.00	0.00	-0.123535	0.082520	0.992188	-5.110000	2.730000	1.260000	587.00	-0.276004	-0.090104	1.75	1.75	0.00	0.00	0.00	0.00	0.00	0.00	0.00	0.00	0.00	0.00	0.00	0.00	0.00	0.00	-0.074707	0.580566	0.878906	-82.599998	-85.050003	-380.380005	31.00	0.000000	0.000000
1.73	13.00	14.50	9.00	11.25	2.00	5.00	0.50	2.50	0.25	0.50	0.75	0.75	1.00	0.00	0.00	0.00	-0.115234	0.088379	0.982422	-5.600000	2.870000	1.050000	592.00	-0.271994	-0.091046	1.75	2.00	0.00	0.25	0.00	0.00	0.00	0.00	0.00	0.00	0.00	0.00	0.00	0.00	0.00	0.00	-0.117676	0.761230	0.828613	-89.879997	-70.489998	-354.619995	36.00	0.000000	0.000000
1.74	13.00	14.25	8.75	11.00	2.00	5.00	0.50	2.50	0.25	0.50	0.75	0.75	1.25	0.00	0.00	0.00	-0.116699	0.082520	0.983887	-6.230000	3.150000	0.840000	586.00	-0.269935	-0.092250	1.75	1.75	0.00	0.25	0.00	0.00	0.00	0.00	0.00	0.00	0.00	0.00	0.00	0.00	0.00	0.00	-0.144531	0.846191	0.691406	-90.650002	-45.150002	-322.209991	34.00	0.000000	0.000000
1.75	12.75	14.25	9.00	11.00	2.00	5.00	0.75	2.50	0.25	0.50	0.75	0.75	1.25	0.00	0.00	0.00	-0.124023	0.075684	0.990723	-6.720000	3.640000	0.770000	590.00	-0.267312	-0.090293	1.75	1.75	0.00	0.00	0.00	0.00	0.00	0.00	0.00	0.00	0.00	0.00	0.00	0.00	0.00	0.00	0.001465	0.969727	0.795898	-78.050003	-19.320000	-286.510010	31.00	0.000000	0.000000
1.76	12.75	14.00	9.00	11.00	2.25	5.25	0.75	2.50	0.50	0.75	1.00	0.75	1.00	0.25	0.00	0.00	-0.124512	0.076660	0.991211	-7.000000	4.060000	0.630000	601.00	-0.258372	-0.085720	2.00	1.75	0.00	0.00	0.00	0.00	0.00	0.00	0.00	0.00	0.00	0.00	0.00	0.00	0.00	0.00	0.086914	1.002441	0.766602	-54.389999	5.460000	-248.919998	34.00	0.000000	0.000000
1.77	12.50	13.75	9.00	11.00	2.75	5.25	0.75	2.50	0.75	0.75	1.00	0.75	1.00	0.25	0.00	0.25	-0.123535	0.077148	0.999512	-7.140000	4.480000	0.560000	605.00	-0.252330	-0.083672	1.50	1.00	0.00	0.00	0.00	0.00	0.00	0.00	0.00	0.00	0.00	0.00	0.00	0.00	0.00	0.00	0.155273	0.959961	0.967773	-29.120001	16.660000	-212.940002	23.00	0.000000	0.000000
1.78	12.25	13.75	8.75	10.75	2.50	5.00	0.75	2.50	0.50	0.75	1.00	0.75	1.50	0.00	0.00	0.25	-0.123535	0.077148	0.999512	-7.140000	4.480000	0.560000	592.00	-0.254403	-0.089626	1.00	1.00	0.00	0.00	0.00	0.00	0.00	0.00	0.00	0.00	0.00	0.00	0.00	0.00	0.00	0.00	0.313477	0.865723	1.139160	1.330000	17.150000	-175.559998	18.00	0.000000	0.000000
1.79	12.25	13.50	8.75	10.75	2.75	5.00	0.75	2.50	0.50	0.75	1.00	1.00	1.50	0.25	0.00	0.00	-0.123047	0.076172	0.993652	-7.910000	4.900000	0.140000	596.00	-0.250511	-0.088208	1.00	1.00	0.00	0.00	0.00	0.00	0.00	0.00	0.00	0.00	0.00	0.00	0.00	0.00	0.00	0.00	0.332031	0.752930	1.181641	21.840000	11.130000	-139.160004	18.00	0.000000	0.000000
1.80	12.00	13.50	8.75	10.75	2.50	4.75	0.75	2.50	0.50	0.75	1.00	1.00	1.50	0.25	0.00	0.00	-0.131348	0.076172	0.994629	-8.190000	5.110000	0.000000	588.00	-0.250846	-0.088858	1.00	0.25	0.00	0.00	0.00	0.00	0.00	0.00	0.00	0.00	0.00	0.00	0.00	0.00	0.00	0.00	0.351562	0.635254	1.188477	32.830002	3.010000	-103.949997	12.00	0.000000	0.000000
1.81	12.00	13.50	8.75	10.75	2.75	4.75	0.75	2.50	0.75	0.75	1.00	1.00	1.50	0.25	0.25	0.00	-0.121582	0.074707	0.989746	-8.470000	5.180000	0.000000	596.00	-0.245105	-0.086376	1.00	0.25	0.00	0.00	0.00	0.00	0.00	0.00	0.00	0.00	0.00	0.00	0.00	0.00	0.00	0.00	0.357422	0.506348	1.116211	37.029999	-3.920000	-72.519997	12.00	0.000000	0.000000
1.82	12.00	13.25	8.75	10.50	2.75	4.75	0.75	2.50	1.00	1.00	1.00	1.25	1.50	0.50	0.25	0.25	-0.124023	0.076172	0.990723	-9.030000	5.320000	-0.210000	603.00	-0.234716	-0.083588	0.75	0.25	0.00	0.00	0.00	0.00	0.00	0.00	0.00	0.00	0.00	0.00	0.00	0.00	0.00	0.00	0.335449	0.407715	1.032715	38.290001	-7.700000	-46.900002	9.00	0.000000	0.000000
1.83	11.75	13.00	8.75	10.25	2.75	4.75	1.00	2.50	1.00	1.00	1.25	1.25	1.50	0.50	0.00	0.25	-0.128418	0.076660	0.994629	-9.520000	5.460000	-0.350000	599.00	-0.232103	-0.081704	0.50	0.25	0.00	0.00	0.00	0.00	0.00	0.00	0.00	0.00	0.00	0.00	0.00	0.00	0.00	0.00	0.323730	0.318359	0.975098	38.150002	-7.070000	-28.280001	7.00	0.000000	0.000000
1.84	11.75	13.00	8.75	10.50	2.75	4.75	1.00	2.50	1.25	1.25	1.00	1.25	1.75	0.50	0.00	0.25	-0.120605	0.070801	0.991211	-9.520000	5.600000	-0.280000	607.00	-0.228557	-0.081082	0.25	0.25	0.00	0.00	0.00	0.00	0.00	0.00	0.00	0.00	0.00	0.00	0.00	0.00	0.00	0.00	0.330078	0.145020	0.907227	28.139999	-0.700000	-6.160000	4.00	0.000000	0.000000
1.85	11.75	12.75	8.75	10.25	3.25	4.75	1.00	2.50	1.25	1.25	2.25	1.75	1.50	0.50	0.00	0.25	-0.124023	0.068848	0.989258	-9.940000	5.670000	-0.420000	622.00	-0.215977	-0.080179	0.50	0.25	0.00	0.00	0.00	0.00	0.00	0.00	0.00	0.00	0.00	0.00	0.00	0.00	0.00	0.00	0.330078	0.145020	0.907227	28.139999	-0.700000	-6.160000	7.00	0.000000	0.000000
1.86	11.25	12.75	8.75	10.25	3.75	4.75	1.00	2.50	1.25	1.25	2.25	1.75	1.50	0.50	0.00	0.25	-0.125977	0.066406	0.997559	-10.080000	5.530000	-0.350000	622.00	-0.213819	-0.080475	0.50	0.25	0.00	0.00	0.00	0.00	0.00	0.00	0.00	0.00	0.00	0.00	0.00	0.00	0.00	0.00	0.308594	0.086914	0.866699	19.320000	3.920000	0.210000	7.00	0.000000	0.000000
1.87	11.25	12.50	8.75	9.50	3.25	4.75	1.00	2.50	1.25	1.25	2.00	1.75	1.50	0.50	0.25	0.25	-0.132812	0.061035	0.989746	-10.290000	5.670000	-0.350000	607.00	-0.212199	-0.079428	0.00	0.25	0.00	0.00	0.00	0.00	0.00	0.00	0.00	0.00	0.00	0.00	0.00	0.00	0.00	0.00	0.276855	0.058594	0.864258	11.340000	9.590000	3.920000	2.00	0.000000	0.000000
1.88	11.00	12.50	8.50	9.50	3.75	4.50	1.25	2.50	1.50	1.75	2.50	1.75	1.50	0.75	0.25	0.50	-0.125488	0.067383	0.995605	-10.360000	5.740000	-0.350000	624.00	-0.197007	-0.074287	0.25	0.00	0.00	0.00	0.00	0.00	0.00	0.00	0.00	0.00	0.00	0.00	0.00	0.00	0.00	0.00	0.224609	0.030273	1.092285	5.250000	12.460000	5.250000	2.00	0.000000	0.000000
1.89	11.00	12.25	8.50	9.50	3.75	4.75	1.25	2.50	1.50	2.00	2.25	1.75	1.50	1.00	0.25	0.25	-0.133301	0.061035	0.996094	-10.080000	5.530000	-0.350000	625.00	-0.195255	-0.072818	0.25	0.00	0.00	0.00	0.00	0.00	0.00	0.00	0.00	0.00	0.00	0.00	0.00	0.00	0.00	0.00	0.224609	0.030273	1.092285	5.250000	12.460000	5.250000	2.00	0.000000	0.000000
1.90	10.75	12.00	8.50	9.50	3.75	4.75	1.25	2.50	2.00	1.75	2.00	1.50	1.75	1.00	0.50	0.50	-0.131836	0.062500	0.993652	-10.080000	5.250000	-0.490000	625.00	-0.189628	-0.071121	0.25	0.00	0.00	0.00	0.00	0.00	0.00	0.00	0.00	0.00	0.00	0.00	0.00	0.00	0.00	0.00	0.135742	0.096191	1.179199	-3.290000	-6.860000	3.990000	2.00	0.000000	0.000000
1.91	10.50	12.00	8.50	9.25	4.00	4.75	1.25	2.50	2.50	2.00	2.00	1.75	1.75	1.25	0.25	0.50	-0.129883	0.061523	0.990234	-9.870000	4.970000	-0.490000	633.00	-0.181256	-0.066933	0.00	0.00	0.00	0.00	0.00	0.00	0.00	0.00	0.00	0.00	0.00	0.00	0.00	0.00	0.00	0.00	0.083008	0.176758	1.172363	-7.840000	-18.969999	5.530000	0.00	0.000000	0.000000
1.92	10.75	11.75	8.50	9.00	4.25	4.50	1.25	2.50	2.50	2.00	2.25	1.75	2.25	1.00	0.25	0.50	-0.134277	0.060547	0.998047	-9.940000	4.550000	-0.560000	635.00	-0.178866	-0.067426	0.00	0.00	0.00	0.00	0.00	0.00	0.00	0.00	0.00	0.00	0.00	0.00	0.00	0.00	0.00	0.00	0.031738	0.239746	1.116699	-7.350000	-30.799999	8.190000	0.00	0.000000	0.000000
1.93	10.50	11.75	8.50	9.00	4.25	4.50	1.50	2.50	2.75	2.50	2.50	1.75	2.25	1.00	0.00	0.50	-0.134277	0.060547	0.998047	-9.940000	4.550000	-0.560000	644.00	-0.172215	-0.063964	0.00	0.00	0.00	0.00	0.00	0.00	0.00	0.00	0.00	0.00	0.00	0.00	0.00	0.00	0.00	0.00	-0.026367	0.261719	1.041016	-2.730000	-39.340000	11.200000	0.00	0.000000	0.000000
1.94	10.25	11.75	8.50	8.75	4.25	4.50	1.75	2.50	2.75	2.75	2.25	1.50	2.00	1.25	0.50	0.50	-0.134277	0.058594	0.992188	-9.870000	4.760000	-0.630000	645.00	-0.165884	-0.058963	0.00	0.00	0.00	0.00	0.00	0.00	0.00	0.00	0.00	0.00	0.00	0.00	0.00	0.00	0.00	0.00	-0.111816	0.230957	1.022461	2.870000	-44.869999	13.790000	0.00	0.000000	0.000000
1.95	10.00	11.75	8.25	9.00	4.25	4.50	1.75	2.50	3.00	2.75	2.50	1.50	2.00	1.75	0.50	0.50	-0.134277	0.063965	0.991211	-10.360000	4.970000	-0.980000	652.00	-0.158260	-0.058053	0.00	0.00	0.00	0.00	0.00	0.00	0.00	0.00	0.00	0.00	0.00	0.00	0.00	0.00	0.00	0.00	-0.184082	0.221191	1.007324	4.270000	-49.139999	13.370000	0.00	0.000000	0.000000
1.96	9.50	11.25	8.25	8.75	4.25	4.25	1.75	2.50	3.25	2.75	2.75	1.75	2.00	1.75	0.25	0.50	-0.134277	0.051270	0.992676	-10.780000	5.180000	-1.190000	644.00	-0.151676	-0.056563	0.00	0.00	0.00	0.00	0.00	0.00	0.00	0.00	0.00	0.00	0.00	0.00	0.00	0.00	0.00	0.00	-0.265625	0.252441	0.992676	1.960000	-52.709999	9.800000	0.00	0.000000	0.000000
1.97	9.25	11.25	8.00	8.75	4.25	4.25	1.75	2.25	3.25	3.00	3.00	2.25	2.25	1.75	0.25	0.50	-0.134766	0.051758	0.993164	-11.130000	5.390000	-1.400000	647.00	-0.144537	-0.058752	0.00	0.00	0.00	0.00	0.00	0.00	0.00	0.00	0.00	0.00	0.00	0.00	0.00	0.00	0.00	0.00	-0.318359	0.279297	1.006348	-0.420000	-57.610001	3.850000	0.00	0.000000	0.000000
1.98	9.00	10.25	8.00	8.75	4.50	4.25	2.00	2.00	3.75	3.25	3.00	2.25	2.25	2.25	0.25	0.50	-0.126465	0.045410	0.995605	-11.690000	5.880000	-1.610000	651.00	-0.131066	-0.049186	0.25	0.00	0.00	0.00	0.00	0.00	0.00	0.00	0.00	0.00	0.00	0.00	0.00	0.00	0.00	0.00	-0.858398	0.312988	0.900391	-3.290000	-65.590004	-4.200000	2.00	0.000000	0.000000
1.99	8.75	10.00	8.25	9.00	4.50	4.25	2.25	2.00	4.25	3.25	2.75	2.25	2.00	3.00	0.50	0.50	-0.128906	0.053223	0.997070	-12.320000	6.720000	-1.960000	665.00	-0.121143	-0.041710	0.25	0.00	0.00	0.00	0.00	0.00	0.00	0.00	0.00	0.00	0.00	0.00	0.00	0.00	0.00	0.00	-0.967773	0.204102	0.473633	-14.560000	-55.860001	-13.370000	2.00	0.000000	0.000000
2.00	8.75	9.50	8.00	9.00	4.50	4.25	2.25	2.00	4.25	3.50	3.25	2.25	1.75	3.00	0.50	0.75	-0.135254	0.052246	0.996094	-12.320000	7.980000	-2.100000	664.00	-0.114888	-0.040832	0.00	0.00	0.00	0.00	0.00	0.00	0.00	0.00	0.00	0.00	0.00	0.00	0.00	0.00	0.00	0.00	-1.246094	0.320312	0.670898	-33.459999	-40.529999	-24.080000	0.00	0.000000	0.000000
2.01	8.50	9.00	7.25	8.75	4.50	4.25	2.25	2.25	4.50	3.50	3.25	2.00	1.50	3.25	0.25	0.75	-0.140625	0.041504	0.996094	-12.110000	9.450000	-2.170000	649.00	-0.109608	-0.038765	0.25	0.25	0.00	0.00	0.00	0.00	0.00	0.00	0.00	0.00	0.00	0.00	0.00	0.00	0.00	0.00	-1.487793	0.467285	0.596191	-35.070000	-23.240000	-25.480000	4.00	0.000000	0.000000
2.02	7.50	8.75	7.00	8.25	4.50	4.25	2.25	2.00	4.75	3.50	3.25	2.00	2.00	3.75	0.50	0.75	-0.136719	0.040527	1.000000	-12.250000	10.990000	-2.450000	640.00	-0.094177	-0.037678	0.50	1.25	0.00	0.00	0.00	0.00	0.00	0.00	0.00	0.00	0.00	0.00	0.00	0.00	0.00	0.00	-1.671387	0.498047	0.588867	-25.200001	-10.010000	-13.650000	15.00	0.000000	0.000000
2.03	7.50	9.00	6.75	7.75	4.50	4.00	2.50	1.75	5.25	3.75	3.25	1.75	2.00	3.75	0.50	0.75	-0.144531	0.044434	1.005371	-12.040000	12.600000	-2.590000	638.00	-0.088908	-0.028477	1.25	2.00	0.00	0.00	0.00	0.00	0.00	0.00	0.00	0.00	0.00	0.00	0.00	0.00	0.00	0.00	-2.221680	0.361328	0.594727	-25.129999	-5.810000	12.390000	29.00	0.000000	0.000000
2.04	7.00	8.50	6.25	7.25	4.25	4.00	2.50	1.50	5.75	4.25	3.50	2.25	2.00	3.75	0.50	0.75	-0.147949	0.043457	0.995117	-11.340000	14.980000	-2.730000	631.00	-0.072404	-0.025143	2.25	4.00	0.25	0.25	0.00	0.00	0.00	0.00	0.00	0.00	0.00	0.00	0.00	0.00	0.00	0.00	-2.270020	0.392578	0.239258	-8.120000	9.940000	58.310001	60.00	-0.400175	-0.060157
2.05	6.25	7.75	6.00	6.75	4.00	2.75	2.50	1.50	6.25	4.25	3.50	2.25	1.75	4.00	0.50	1.00	-0.139648	0.046875	1.003906	-11.060000	17.360001	-2.870000	602.00	-0.055477	-0.014828	4.00	5.50	0.50	1.00	0.00	0.00	0.00	0.00	0.00	0.00	0.00	0.00	0.00	0.00	0.00	0.00	-1.000977	0.023438	0.625977	50.610001	55.510002	109.690002	99.00	-0.390826	-0.054072
2.06	6.00	6.75	5.50	6.00	3.75	2.50	2.50	1.25	7.25	4.25	3.75	2.25	1.50	4.50	0.50	1.00	-0.142578	0.034180	1.022461	-10.710000	20.020000	-3.010000	587.00	-0.033767	-0.000075	7.25	7.75	1.00	4.25	0.00	0.00	0.00	0.00	0.00	0.00	0.00	0.00	0.00	0.00	0.00	0.00	-0.129883	-0.729492	1.401367	61.599998	100.660004	106.750000	187.00	-0.374070	-0.064501
2.07	5.50	5.75	5.00	5.50	3.25	1.75	2.25	1.00	7.25	4.50	3.75	2.25	1.50	4.75	0.50	1.00	-0.139160	0.024414	1.028809	-9.310000	24.080000	-3.290000	548.00	-0.015847	0.007763	8.50	10.75	3.00	6.00	0.00	0.00	0.00	0.00	0.00	0.00	0.00	0.00	0.00	0.00	0.00	0.00	0.123047	-0.993652	1.597656	35.630001	88.690002	60.060001	262.00	-0.365231	-0.065230
2.08	4.75	5.25	4.75	4.50	2.75	1.25	2.25	0.75	7.75	4.75	3.50	2.00	1.00	5.00	0.50	1.00	-0.140625	0.019531	1.038086	-7.980000	30.170000	-3.990000	512.00	0.004126	0.026536	10.00	13.75	5.00	7.75	0.00	0.00	0.00	0.00	0.00	0.00	0.00	0.00	0.00	0.00	0.00	0.00	0.076660	-0.728516	0.895508	-2.100000	63.139999	-8.610000	339.00	-0.360633	-0.064416
2.09	4.25	4.25	4.25	4.00	2.00	0.75	2.25	0.50	8.25	5.00	3.75	1.75	0.75	5.50	0.50	1.00	-0.146973	0.042480	1.031738	-7.350000	37.450001	-4.340000	483.00	0.032050	0.043973	12.50	14.75	7.00	9.25	0.00	0.25	0.00	0.00	0.00	0.00	0.00	0.00	0.00	0.00	0.00	0.00	-0.121094	0.445312	0.919434	-19.530001	83.019997	-50.470001	409.00	-0.355557	-0.055984
2.10	3.75	3.75	3.75	3.50	1.50	0.50	1.75	0.25	8.25	5.00	3.50	1.75	0.75	5.75	0.50	1.00	-0.156250	0.010254	1.054199	-9.450000	46.130001	-3.430000	446.00	0.050925	0.051081	12.75	15.75	8.50	10.75	0.25	1.00	0.00	0.25	0.00	0.25	0.00	0.00	0.00	0.00	0.00	0.00	-0.336914	0.926758	1.584473	-55.930000	71.540001	-23.590000	466.00	-0.341653	-0.062550
2.11	3.50	3.50	3.50	3.25	1.00	0.25	1.25	0.00	8.25	5.00	3.25	1.75	0.00	5.75	0.75	0.75	-0.159180	-0.037598	1.094727	-18.480000	61.110001	-0.910000	411.00	0.061786	0.064394	12.75	15.75	9.00	12.25	0.25	2.00	0.00	0.25	0.00	0.25	0.00	0.00	0.00	0.00	0.00	0.00	-0.356445	0.311035	1.230469	-42.349998	34.160000	12.740000	496.00	-0.335431	-0.070128
2.12	3.50	3.50	3.00	3.00	0.75	0.00	1.00	0.00	8.25	4.75	3.00	1.50	0.00	6.00	0.50	0.50	-0.241211	0.132812	1.149902	-37.029999	98.629997	-4.830000	386.00	0.066428	0.072614	12.75	15.50	8.75	12.25	0.50	3.75	0.00	0.50	0.00	0.25	0.00	0.00	0.00	0.00	0.00	0.00	-0.094238	0.043945	1.066895	-15.400000	4.550000	4.760000	515.00	-0.326046	-0.078912
2.13	3.25	2.50	2.50	2.00	0.50	0.00	0.50	0.00	8.00	4.50	2.75	1.00	0.00	5.75	0.50	0.50	-0.224121	0.024902	1.246094	-46.900002	113.260002	-10.360000	336.00	0.090476	0.087813	12.75	16.00	9.25	13.00	0.50	4.25	0.00	0.50	0.00	0.25	0.00	0.00	0.00	0.00	0.00	0.00	-0.094238	0.043945	1.066895	-15.400000	4.550000	4.760000	537.00	-0.324030	-0.081841
2.14	2.00	2.25	2.25	1.25	0.50	0.00	0.25	0.00	7.25	4.50	2.25	0.75	0.00	6.00	0.50	0.25	-0.254395	0.089355	1.243652	-60.830002	126.000000	-13.720000	293.00	0.119705	0.098040	12.75	15.75	9.25	12.50	0.75	4.25	0.00	0.75	0.00	0.50	0.00	0.00	0.00	0.00	0.00	0.00	-0.166016	0.266113	0.998047	-8.750000	-0.770000	4.900000	538.00	-0.318571	-0.080868
2.15	1.25	1.50	2.00	1.25	0.50	0.00	0.25	0.00	7.25	4.25	1.75	0.50	0.00	5.75	0.25	0.25	-0.282715	0.094238	1.254395	-71.260002	137.199997	-20.020000	263.00	0.141757	0.113037	12.25	16.00	9.25	13.00	0.75	4.25	0.00	1.00	0.00	0.50	0.25	0.00	0.00	0.00	0.00	0.00	-0.128418	0.140137	1.053711	-6.510000	0.420000	10.220000	546.00	-0.313595	-0.086295
2.16	1.25	1.00	1.50	0.50	0.25	0.00	0.00	0.00	6.00	4.25	1.25	0.25	0.00	5.75	0.00	0.00	-0.300293	0.065430	1.220215	-81.620003	140.350006	-24.570000	215.00	0.166706	0.132571	12.25	15.75	9.25	13.75	0.75	4.75	0.00	1.00	0.00	0.50	0.25	0.00	0.00	0.00	0.00	0.00	-0.129395	0.143066	1.023926	-1.820000	-3.850000	6.230000	557.00	-0.311412	-0.089534
2.17	1.00	0.75	1.25	0.50	0.25	0.00	0.00	0.00	5.50	4.00	1.00	0.00	0.00	5.75	0.00	0.00	-0.343750	0.078613	1.179688	-91.840004	143.149994	-29.260000	194.00	0.180740	0.141523	11.25	15.50	9.25	13.75	1.00	5.75	0.00	1.50	0.00	0.50	0.25	0.00	0.00	0.00	0.00	0.25	-0.118164	0.150391	1.023926	-0.210000	-3.500000	6.580000	566.00	-0.300697	-0.099332
2.18	0.50	0.50	1.25	0.50	0.25	0.00	0.00	0.00	5.25	3.50	1.00	0.25	0.00	5.50	0.00	0.00	-0.393555	0.084473	1.200195	-99.470001	145.600006	-35.349998	180.00	0.198046	0.139553	11.25	15.50	9.25	13.00	0.75	5.75	0.00	2.00	0.00	0.50	0.25	0.00	0.00	0.25	0.00	0.25	-0.111328	0.128906	1.027344	1.330000	-3.360000	6.510000	565.00	-0.295636	-0.101017
2.19	0.00	0.50	0.75	0.00	0.25	0.00	0.00	0.00	4.75	3.50	1.00	0.00	0.00	5.25	0.00	0.00	-0.424316	0.092773	1.257324	-110.599998	144.199997	-42.770000	155.00	0.242273	0.155035	11.25	15.50	9.25	13.75	1.00	5.75	0.00	2.00	0.00	0.50	0.50	0.25	0.25	0.25	0.00	0.25	-0.121094	0.140137	1.021973	3.430000	-3.710000	5.810000	582.00	-0.288959	-0.104024
2.20	0.00	0.25	0.50	0.00	0.00	0.00	0.00	0.00	4.25	3.25	0.50	0.00	0.00	4.75	0.00	0.00	-0.406250	0.019043	1.366699	-133.419998	136.710007	-48.720001	131.00	0.264716	0.168710	11.25	15.25	9.25	13.75	1.00	6.25	0.00	2.00	0.00	0.50	0.75	0.00	0.25	0.00	0.00	0.25	-0.112305	0.151855	1.004883	4.760000	-3.920000	5.810000	582.00	-0.289629	-0.105441
2.21	0.00	0.00	0.50	0.00	0.00	0.00	0.00	0.00	3.75	2.75	0.50	0.00	0.00	4.25	0.00	0.00	-0.401855	0.011230	1.240234	-158.690002	129.220001	-50.889999	114.00	0.273652	0.173400	11.25	15.00	9.25	13.75	1.25	6.50	0.00	2.25	0.00	0.75	0.50	0.00	0.25	0.00	0.00	0.25	-0.102051	0.150879	0.994629	4.830000	-3.850000	5.670000	589.00	-0.286211	-0.106185
2.22	0.00	0.00	0.50	0.00	0.00	0.00	0.00	0.00	3.00	2.50	1.00	0.00	0.00	3.75	0.00	0.00	-0.421875	0.060059	1.254883	-170.380005	123.480003	-51.450001	104.00	0.268466	0.153640	11.25	15.25	9.00	13.75	1.25	6.75	0.00	2.75	0.00	0.75	0.25	0.00	0.50	0.00	0.00	0.25	-0.099121	0.157715	0.991211	4.060000	-3.850000	5.390000	597.00	-0.283546	-0.112398
2.23	0.00	0.00	0.50	0.00	0.00	0.00	0.00	0.00	2.25	2.00	0.50	0.00	0.00	3.25	0.00	0.00	-0.421387	0.077148	1.276367	-170.800003	115.430000	-49.700001	81.00	0.266997	0.160277	11.25	15.00	9.25	13.75	1.00	6.75	0.00	2.75	0.00	0.50	0.50	0.25	0.50	0.25	0.00	0.25	-0.100098	0.163574	0.991211	2.310000	-3.570000	5.250000	600.00	-0.279459	-0.112584
2.24	0.00	0.00	0.00	0.00	0.00	0.00	0.00	0.00	1.75	1.75	0.25	0.00	0.00	2.50	0.00	0.00	-0.372559	-0.005371	1.218262	-185.430008	106.750000	-46.340000	59.00	0.302113	0.168136	11.00	15.25	9.25	13.75	1.00	7.00	0.00	3.00	0.00	0.50	0.50	0.25	0.50	0.25	0.00	0.25	-0.109375	0.161133	0.997559	0.210000	-3.150000	5.040000	605.00	-0.277395	-0.115898
2.25	0.00	0.00	0.00	0.00	0.00	0.00	0.00	0.00	1.25	1.50	0.00	0.00	0.00	1.75	0.00	0.00	-0.376953	-0.017090	1.289551	-214.550003	95.199997	-38.150002	43.00	0.000000	0.000000	11.00	15.25	9.25	13.75	1.25	7.00	0.00	3.50	0.00	0.50	0.50	0.25	0.50	0.00	0.00	0.25	-0.104980	0.154785	0.996094	-1.680000	-2.800000	4.830000	613.00	-0.275963	-0.119237
2.26	0.00	0.00	0.00	0.00	0.00	0.00	0.00	0.00	1.00	1.25	0.00	0.00	0.00	1.00	0.00	0.00	-0.394043	0.071777	1.234375	-242.479996	81.340004	-25.129999	32.00	0.000000	0.000000	11.25	14.75	9.25	13.75	1.25	7.00	0.00	3.50	0.00	0.50	0.75	0.50	0.50	0.00	0.00	0.25	-0.104492	0.158203	0.997559	-2.940000	-2.520000	4.550000	616.00	-0.271639	-0.118717
2.27	0.00	0.00	0.00	0.00	0.00	0.00	0.25	0.00	0.75	1.00	0.00	0.00	0.00	0.75	0.00	0.00	-0.464355	0.740234	1.081055	-248.779999	70.279999	0.560000	28.00	0.000000	0.000000	11.25	15.00	9.50	13.75	1.25	7.25	0.00	3.50	0.00	0.75	0.50	0.50	0.50	0.25	0.00	0.25	-0.107422	0.147461	1.003906	-3.220000	-2.380000	4.270000	625.00	-0.269446	-0.117031
2.28	0.00	0.00	0.00	0.00	0.00	0.00	0.00	0.00	0.50	0.50	0.00	0.00	0.00	0.50	0.00	0.00	-0.359863	2.900879	1.112793	-104.720001	56.630001	225.960007	15.00	0.000000	0.000000	11.00	14.75	9.25	13.75	1.75	7.25	0.00	3.75	0.00	0.50	0.50	0.50	0.75	0.25	0.00	0.25	-0.108398	0.143555	1.014160	-2.940000	-2.520000	3.780000	626.00	-0.266417	-0.120441
2.29	0.00	0.00	0.00	0.00	0.00	0.00	0.00	0.00	0.25	0.50	0.00	0.00	0.00	0.50	0.00	0.00	-0.359863	2.900879	1.112793	-104.720001	56.630001	225.960007	12.00	0.000000	0.000000	11.00	14.50	9.50	13.75	2.00	8.25	0.25	4.00	0.00	0.50	0.75	0.75	1.00	0.25	0.00	0.25	-0.110352	0.151855	1.010254	-1.890000	-2.520000	3.640000	653.00	-0.255544	-0.122278
2.30	0.00	0.00	0.00	0.00	0.00	0.00	0.00	0.00	0.00	0.50	0.00	0.00	0.00	0.00	0.00	0.00	-0.375000	0.848145	1.111328	-82.250000	1.680000	435.959991	5.00	0.000000	0.000000	11.00	14.50	9.25	13.75	2.00	8.75	0.25	4.00	0.00	0.75	0.75	0.50	1.25	0.25	0.00	0.25	-0.113770	0.145996	1.018555	-0.770000	-2.450000	3.570000	657.00	-0.253346	-0.123961
2.31	0.00	0.00	0.00	0.00	0.00	0.00	0.00	0.00	0.00	0.25	0.00	0.00	0.00	0.00	0.00	0.00	-0.393555	0.369141	0.868652	-102.480003	-16.590000	459.549988	2.00	0.000000	0.000000	11.00	14.25	9.25	13.00	1.75	8.25	0.25	3.75	0.00	0.75	0.75	0.50	1.50	0.25	0.00	0.50	-0.120117	0.149414	1.018555	0.350000	-2.310000	3.430000	640.00	-0.252488	-0.122170
2.32	0.00	0.00	0.00	0.00	0.00	0.00	0.00	0.00	0.00	0.25	0.00	0.00	0.00	0.00	0.00	0.00	-0.447266	0.104004	0.679688	-94.430000	-25.969999	441.700012	2.00	0.000000	0.000000	11.00	14.25	9.25	13.00	1.75	8.00	0.00	4.00	0.00	0.75	0.75	0.50	1.50	0.25	0.00	0.50	-0.117188	0.158203	1.015137	1.120000	-2.240000	3.500000	637.00	-0.253390	-0.125048
2.33	0.00	0.00	0.00	0.00	0.00	0.00	0.00	0.00	0.00	0.00	0.00	0.00	0.00	0.00	0.00	0.00	-0.312500	-0.192871	0.557129	-60.970001	-26.460001	395.570007	0.00	0.000000	0.000000	11.00	14.25	9.50	13.00	1.75	8.00	0.00	4.25	0.00	0.75	0.75	0.75	1.75	0.25	0.00	0.50	-0.112793	0.157715	1.008301	1.400000	-1.820000	3.360000	648.00	-0.249119	-0.127306
2.34	0.00	0.00	0.00	0.00	0.00	0.00	0.00	0.00	0.00	0.00	0.00	0.00	0.00	0.00	0.00	0.00	-0.296387	-0.488770	0.677734	-26.670000	-23.660000	323.049988	0.00	0.000000	0.000000	10.50	14.25	9.25	13.00	2.00	8.00	0.00	4.25	0.00	1.00	0.75	0.75	1.75	0.25	0.00	0.75	-0.113281	0.158691	0.997070	0.910000	-1.750000	3.430000	647.00	-0.244466	-0.128814
2.35	0.00	0.00	0.00	0.00	0.00	0.00	0.00	0.00	0.00	0.00	0.00	0.00	0.00	0.00	0.00	0.00	-0.084961	-0.609375	0.800293	-12.950000	-19.740000	248.990005	0.00	0.000000	0.000000	10.50	14.00	9.25	12.50	2.25	8.00	0.25	4.25	0.00	1.00	0.75	0.75	1.75	0.25	0.00	0.75	-0.110840	0.158691	1.005859	0.140000	-1.610000	3.360000	645.00	-0.241352	-0.125200
2.36	0.00	0.00	0.00	0.00	0.00	0.00	0.00	0.00	0.00	0.00	0.00	0.00	0.00	0.00	0.00	0.00	0.029297	-0.577148	0.922363	-30.100000	-20.440001	184.449997	0.00	0.000000	0.000000	10.50	13.75	9.25	13.00	2.00	8.00	0.00	4.00	0.00	0.75	1.25	0.75	1.75	0.25	0.00	0.75	-0.117188	0.164062	1.002930	-0.910000	-1.680000	3.360000	641.00	-0.242880	-0.127761
2.37	0.00	0.00	0.00	0.00	0.00	0.00	0.00	0.00	0.00	0.00	0.00	0.00	0.00	0.00	0.00	0.00	0.098633	-0.328613	1.020996	-55.230000	-28.139999	131.110001	0.00	0.000000	0.000000	10.00	13.50	9.00	13.00	2.00	8.00	0.00	4.25	0.00	0.75	1.25	0.75	2.25	0.25	0.00	1.00	-0.111816	0.155273	1.000488	-1.960000	-1.680000	3.290000	641.00	-0.236039	-0.134122
2.38	0.00	0.00	0.00	0.00	0.00	0.00	0.00	0.00	0.00	0.00	0.00	0.00	0.00	0.00	0.00	0.00	0.144043	-0.036133	1.066406	-66.080002	-40.810001	89.739998	0.00	0.000000	0.000000	10.00	13.50	9.00	12.50	2.25	8.00	0.25	4.25	0.00	1.00	1.00	0.75	2.25	0.25	0.00	1.00	-0.118164	0.150391	1.000000	-2.800000	-2.100000	3.220000	642.00	-0.233442	-0.129935
2.39	0.00	0.00	0.00	0.00	0.00	0.00	0.00	0.00	0.00	0.00	0.00	0.00	0.00	0.00	0.00	0.00	0.165527	0.147461	1.070801	-61.529999	-55.580002	60.689999	0.00	0.000000	0.000000	10.00	13.50	9.25	13.00	2.25	8.00	0.25	4.25	0.00	1.00	1.00	0.75	2.25	0.50	0.00	1.00	-0.112793	0.145508	1.012207	-2.590000	-2.590000	3.220000	651.00	-0.232047	-0.128884
2.40	0.00	0.00	0.00	0.00	0.00	0.00	0.00	0.00	0.00	0.00	0.00	0.00	0.00	0.00	0.00	0.00	0.169434	0.281250	1.038574	-53.130001	-68.739998	42.420002	0.00	0.000000	0.000000	10.00	13.25	9.25	13.00	2.50	8.00	0.25	4.25	0.00	1.00	1.00	0.75	2.25	0.50	0.00	1.00	-0.117676	0.151367	1.003906	-0.910000	-3.360000	3.360000	651.00	-0.231039	-0.128031
2.41	0.00	0.00	0.00	0.00	0.00	0.00	0.00	0.00	0.00	0.00	0.00	0.00	0.00	0.00	0.00	0.00	0.133301	0.406738	0.975586	-47.320000	-78.470001	33.180000	0.00	0.000000	0.000000	9.75	13.25	9.00	12.50	2.50	8.00	0.25	4.25	0.00	1.00	1.00	0.75	2.25	0.50	0.00	1.00	-0.120117	0.154297	1.011719	-0.350000	-3.710000	3.360000	642.00	-0.229825	-0.129012
2.42	0.00	0.00	0.00	0.00	0.00	0.00	0.00	0.00	0.00	0.00	0.00	0.00	0.00	0.00	0.00	0.00	0.097656	0.529785	0.922363	-44.099998	-84.419998	30.940001	0.00	0.000000	0.000000	10.00	13.25	9.00	12.50	3.00	8.25	0.25	4.75	0.00	1.00	1.00	0.75	2.50	0.50	0.00	1.00	-0.120117	0.154297	1.011719	-0.350000	-3.710000	3.360000	660.00	-0.225864	-0.131026
2.43	0.00	0.00	0.00	0.00	0.00	0.00	0.00	0.00	0.00	0.00	0.00	0.00	0.00	0.00	0.00	0.00	0.058594	0.655762	0.895996	-40.320000	-88.340004	34.790001	0.00	0.000000	0.000000	10.00	13.25	9.25	12.50	3.00	8.75	0.25	4.75	0.00	1.00	0.75	1.50	2.50	0.50	0.00	1.00	-0.121582	0.149414	1.013184	0.280000	-3.710000	3.360000	673.00	-0.222397	-0.133061
2.44	0.00	0.00	0.00	0.00	0.00	0.00	0.00	0.00	0.00	0.00	0.00	0.00	0.00	0.00	0.00	0.00	0.004883	0.853027	0.908203	-20.299999	-93.099998	59.500000	0.00	0.000000	0.000000	10.00	13.25	9.25	12.50	2.75	8.75	0.25	4.75	0.00	1.00	0.75	1.50	2.50	0.50	0.25	1.25	-0.121094	0.152344	1.004395	1.190000	-3.360000	3.150000	674.00	-0.219423	-0.133937
2.45	0.00	0.00	0.00	0.00	0.00	0.00	0.00	0.00	0.00	0.00	0.00	0.00	0.00	0.00	0.00	0.00	0.004883	0.853027	0.908203	-20.299999	-93.099998	59.500000	0.00	0.000000	0.000000	9.75	13.00	9.25	12.50	2.50	8.75	0.25	4.75	0.00	1.00	1.25	1.50	2.75	0.50	0.00	1.25	-0.116211	0.156738	1.012695	1.120000	-3.010000	2.800000	671.00	-0.216431	-0.136453
2.46	0.00	0.00	0.00	0.00	0.00	0.00	0.00	0.00	0.00	0.00	0.00	0.00	0.00	0.00	0.00	0.00	-0.035645	0.867188	0.925781	-6.370000	-95.269997	78.260002	0.00	0.000000	0.000000	9.75	13.25	9.25	12.50	2.50	8.75	0.25	4.75	0.00	1.00	1.25	1.50	3.00	0.50	0.00	1.25	-0.116699	0.154785	1.007324	0.980000	-2.730000	2.590000	675.00	-0.215916	-0.137506
2.47	0.00	0.00	0.00	0.00	0.00	0.00	0.00	0.00	0.00	0.00	0.00	0.00	0.00	0.00	0.00	0.00	-0.064453	0.831055	0.910645	7.070000	-96.739998	98.699997	0.00	0.000000	0.000000	9.75	13.00	9.25	12.50	3.25	8.75	0.25	5.25	0.00	1.25	1.50	1.50	3.50	0.50	0.25	1.25	-0.124023	0.159180	1.012695	1.120000	-2.590000	2.520000	699.00	-0.204892	-0.138706
2.48	0.00	0.00	0.00	0.00	0.00	0.00	0.00	0.00	0.00	0.00	0.00	0.00	0.00	0.00	0.00	0.00	-0.130371	0.658203	0.893555	29.469999	-94.290001	136.220001	0.00	0.000000	0.000000	9.75	12.75	9.25	12.25	3.25	8.75	0.25	5.25	0.00	1.25	1.50	1.50	3.50	0.50	0.25	1.50	-0.116699	0.156738	1.010254	1.330000	-2.240000	2.450000	696.00	-0.202938	-0.138626
2.49	0.00	0.00	0.00	0.00	0.00	0.00	0.00	0.00	0.00	0.00	0.00	0.00	0.00	0.00	0.00	0.00	-0.127930	0.529785	0.907715	38.360001	-90.440002	149.589996	0.00	0.000000	0.000000	9.50	12.50	9.25	12.50	3.00	8.75	0.25	5.25	0.00	1.25	1.50	1.50	3.75	0.50	0.00	1.50	-0.114746	0.161133	1.000977	1.050000	-1.890000	2.310000	691.00	-0.203248	-0.141560
2.50	0.00	0.00	0.00	0.00	0.00	0.00	0.00	0.00	0.00	0.00	0.00	0.00	0.00	0.00	0.00	0.00	-0.139648	0.379883	0.956055	46.970001	-86.309998	156.449997	0.00	0.000000	0.000000	9.75	12.50	9.25	12.50	3.00	8.75	0.25	5.25	0.00	1.50	1.75	1.50	3.75	0.50	0.00	1.50	-0.121094	0.162598	1.008789	0.420000	-1.610000	2.170000	698.00	-0.200942	-0.139923
2.51	0.00	0.00	0.00	0.00	0.00	0.00	0.00	0.00	0.00	0.00	0.00	0.00	0.00	0.00	0.00	0.00	-0.125977	0.241211	1.044922	52.779999	-84.139999	156.729996	0.00	0.000000	0.000000	9.75	12.25	9.00	12.25	2.75	8.25	0.25	5.25	0.00	1.50	1.75	1.50	4.00	0.50	0.00	1.50	-0.120605	0.153320	1.009277	-0.070000	-1.470000	2.100000	685.00	-0.199275	-0.141093
2.52	0.00	0.00	0.00	0.00	0.00	0.00	0.00	0.00	0.00	0.00	0.00	0.00	0.00	0.00	0.00	0.00	-0.078613	0.114258	1.123047	53.900002	-84.769997	152.039993	0.00	0.000000	0.000000	9.50	12.25	9.00	12.25	2.75	8.25	0.25	5.25	0.00	1.50	1.75	1.50	4.00	0.50	0.00	1.50	-0.118652	0.154785	1.008789	-0.420000	-1.330000	2.030000	683.00	-0.198568	-0.141960
2.53	0.00	0.00	0.00	0.00	0.00	0.00	0.00	0.00	0.00	0.00	0.00	0.00	0.00	0.00	0.00	0.00	-0.030273	-0.012207	1.203613	54.810001	-87.779999	143.570007	0.00	0.000000	0.000000	9.50	11.75	9.00	12.25	2.50	8.25	0.25	5.25	0.00	1.50	1.75	1.75	4.50	0.50	0.00	1.75	-0.117188	0.163574	1.005859	-0.910000	-1.190000	1.750000	684.00	-0.192889	-0.145276
2.54	0.00	0.00	0.00	0.00	0.00	0.00	0.00	0.00	0.00	0.00	0.00	0.00	0.00	0.00	0.00	0.00	-0.007324	-0.145508	1.282227	59.500000	-93.309998	130.410004	0.00	0.000000	0.000000	9.50	11.00	9.00	11.25	3.25	8.25	0.25	5.75	0.00	1.50	1.75	1.75	4.50	0.50	0.00	1.75	-0.116211	0.156250	1.007324	-1.470000	-0.980000	1.470000	682.00	-0.186837	-0.144143
2.55	0.00	0.00	0.00	0.00	0.00	0.00	0.00	0.00	0.00	0.00	0.00	0.00	0.00	0.00	0.00	0.00	0.000488	-0.292969	1.383789	65.029999	-101.080002	111.720001	0.00	0.000000	0.000000	9.25	11.00	8.75	11.25	3.25	8.25	0.25	5.75	0.00	1.75	1.75	2.00	4.50	0.50	0.00	1.75	-0.120117	0.157227	1.003906	-1.960000	-0.840000	1.470000	682.00	-0.182899	-0.145704
2.56	0.00	0.00	0.00	0.00	0.00	0.00	0.00	0.00	0.00	0.00	0.00	0.00	0.00	0.00	0.00	0.00	-0.004395	-0.440430	1.484375	66.709999	-111.790001	89.110001	0.00	0.000000	0.000000	9.25	10.75	8.75	10.75	3.00	8.00	0.25	5.75	0.00	1.75	2.00	1.75	4.75	0.75	0.25	1.75	-0.116211	0.156738	1.003418	-2.170000	-0.630000	1.190000	676.00	-0.176805	-0.144486
2.57	0.00	0.00	0.00	0.00	0.00	0.00	0.00	0.00	0.00	0.00	0.00	0.00	0.00	0.00	0.00	0.00	-0.012695	-0.519043	1.539062	63.770000	-124.599998	65.169998	0.00	0.000000	0.000000	9.00	10.50	8.50	10.75	3.00	8.00	0.25	5.75	0.00	1.75	2.00	2.25	5.00	0.50	0.00	2.00	-0.125488	0.156738	1.003418	-2.380000	-0.420000	1.120000	673.00	-0.173938	-0.149690
2.58	0.00	0.00	0.00	0.00	0.00	0.00	0.00	0.00	0.00	0.00	0.00	0.00	0.00	0.00	0.00	0.00	-0.055664	-0.557617	1.540527	60.549999	-137.410004	42.000000	0.00	0.000000	0.000000	9.00	10.00	8.50	10.75	3.00	8.00	0.25	5.75	0.00	1.75	2.00	2.25	5.00	0.50	0.25	2.25	-0.126465	0.160156	1.001953	-2.800000	0.210000	0.770000	672.00	-0.169338	-0.149649
2.59	0.00	0.00	0.00	0.00	0.00	0.00	0.00	0.00	0.00	0.00	0.00	0.00	0.00	0.00	0.00	0.00	-0.100098	-0.534668	1.506836	57.889999	-147.419998	21.139999	0.00	0.000000	0.000000	8.75	10.00	8.50	10.50	2.75	7.25	0.25	6.25	0.00	2.00	2.25	2.50	5.50	0.75	0.25	2.25	-0.120117	0.154785	1.003418	-3.290000	0.630000	0.630000	677.00	-0.158968	-0.152727
2.60	0.00	0.00	0.00	0.00	0.00	0.00	0.00	0.00	0.00	0.00	0.00	0.00	0.00	0.00	0.00	0.00	-0.160156	-0.459961	1.477051	55.650002	-153.720001	4.830000	0.00	0.000000	0.000000	8.50	9.75	8.00	10.50	3.00	7.25	0.25	6.25	0.00	2.00	2.25	3.00	5.50	0.75	0.50	2.75	-0.128418	0.154297	1.003906	-3.710000	1.330000	0.490000	680.00	-0.149869	-0.155973
2.61	0.00	0.00	0.00	0.00	0.00	0.00	0.00	0.00	0.00	0.00	0.00	0.00	0.00	0.00	0.00	0.00	-0.224121	-0.385254	1.458496	52.290001	-156.660004	-5.110000	0.00	0.000000	0.000000	8.50	9.25	8.00	9.75	3.00	7.00	0.25	6.25	0.00	2.00	2.25	3.00	5.50	0.75	0.50	2.75	-0.124023	0.158203	1.000977	-3.990000	1.890000	0.280000	666.00	-0.146618	-0.154693
2.62	0.00	0.00	0.00	0.00	0.00	0.00	0.00	0.00	0.00	0.00	0.00	0.00	0.00	0.00	0.00	0.00	-0.360352	-0.250488	1.421875	45.709999	-155.680008	-8.540000	0.00	0.000000	0.000000	8.25	9.00	7.75	9.25	2.75	7.00	0.25	6.25	0.00	2.25	2.50	3.00	5.50	0.75	0.50	3.25	-0.125488	0.159668	1.003906	-4.550000	2.520000	0.070000	659.00	-0.138705	-0.156509
2.63	0.00	0.00	0.00	0.00	0.00	0.00	0.00	0.00	0.00	0.00	0.00	0.00	0.00	0.00	0.00	0.00	-0.360352	-0.250488	1.421875	45.709999	-155.680008	-8.540000	0.00	0.000000	0.000000	8.00	8.50	7.00	9.25	2.75	7.00	0.25	6.25	0.00	2.25	2.50	3.25	5.75	1.00	0.50	3.50	-0.130859	0.155762	0.998535	-5.180000	3.010000	-0.140000	652.00	-0.129626	-0.161044
2.64	0.00	0.00	0.00	0.00	0.00	0.00	0.00	0.00	0.00	0.00	0.00	0.00	0.00	0.00	0.00	0.00	-0.448730	-0.174805	1.393555	47.389999	-148.119995	-1.750000	0.00	0.000000	0.000000	7.50	8.25	6.75	8.75	3.00	6.75	0.25	6.25	0.25	2.75	2.50	3.25	6.00	1.25	0.50	3.75	-0.131348	0.161621	1.000488	-6.020000	3.570000	-0.630000	651.00	-0.116885	-0.158745
2.65	0.00	0.00	0.00	0.00	0.00	0.00	0.00	0.00	0.00	0.00	0.00	0.00	0.00	0.00	0.00	0.00	-0.494629	-0.159668	1.413086	47.040001	-143.500000	2.380000	0.00	0.000000	0.000000	7.50	7.75	6.25	8.25	3.00	6.75	0.25	6.25	0.25	3.50	3.00	3.75	6.50	1.50	0.50	4.25	-0.120605	0.160156	1.012695	-6.580000	3.850000	-0.980000	661.00	-0.098733	-0.159813
2.66	0.00	0.00	0.00	0.00	0.00	0.00	0.00	0.00	0.00	0.00	0.00	0.00	0.00	0.00	0.00	0.00	-0.549805	-0.138184	1.455078	44.380001	-139.509995	6.370000	0.00	0.000000	0.000000	7.50	7.25	6.25	7.75	2.75	6.50	0.25	6.25	0.25	3.50	3.25	4.25	6.50	1.50	0.50	4.50	-0.125977	0.149902	1.001953	-6.790000	4.410000	-1.330000	656.00	-0.090623	-0.160820
2.67	0.00	0.00	0.00	0.00	0.00	0.00	0.00	0.00	0.00	0.00	0.00	0.00	0.00	0.00	0.00	0.00	-0.651855	-0.122559	1.510742	40.250000	-137.690002	10.080000	0.00	0.000000	0.000000	7.25	6.50	5.75	7.25	2.50	6.25	0.25	6.25	0.50	3.75	3.75	4.25	6.50	2.00	0.50	5.00	-0.142578	0.147949	1.005859	-6.720000	5.110000	-1.470000	648.00	-0.073116	-0.159041
2.68	0.00	0.00	0.00	0.00	0.00	0.00	0.00	0.00	0.00	0.00	0.00	0.00	0.00	0.00	0.00	0.00	-0.751953	-0.135742	1.520996	36.470001	-139.440002	14.000000	0.00	0.000000	0.000000	7.00	6.25	5.00	7.00	2.25	5.75	0.25	6.25	0.50	4.00	3.75	4.75	6.75	2.00	0.75	5.50	-0.131836	0.154785	1.003418	-6.300000	6.650000	-1.750000	640.00	-0.059266	-0.164152
2.69	0.00	0.00	0.00	0.00	0.00	0.00	0.00	0.00	0.00	0.00	0.00	0.00	0.00	0.00	0.00	0.00	-0.859375	-0.135742	1.474121	33.599998	-143.149994	16.870001	0.00	0.000000	0.000000	6.75	5.75	5.00	6.75	2.25	5.50	0.25	6.25	0.50	4.25	4.25	4.75	6.50	2.50	0.75	6.25	-0.137695	0.161133	1.022949	-6.160000	7.770000	-2.170000	642.00	-0.046553	-0.161148
2.70	0.00	0.00	0.00	0.00	0.00	0.00	0.00	0.00	0.00	0.00	0.00	0.00	0.00	0.00	0.00	0.00	-0.958008	-0.158203	1.373535	32.270000	-146.089996	17.780001	0.00	0.000000	0.000000	6.00	5.50	4.75	6.25	1.75	4.75	0.25	5.75	0.50	4.50	4.50	5.00	6.75	3.00	1.00	7.25	-0.137695	0.161133	1.022949	-6.160000	7.770000	-2.170000	626.00	-0.025266	-0.161836
2.71	0.00	0.00	0.00	0.00	0.00	0.00	0.00	0.00	0.00	0.00	0.00	0.00	0.00	0.00	0.00	0.00	-1.079590	-0.165527	1.253418	32.410000	-145.949997	16.940001	0.00	0.000000	0.000000	5.50	4.75	4.50	6.00	1.50	4.50	0.25	5.75	0.75	5.25	4.75	5.25	7.00	3.00	1.25	8.25	-0.152344	0.151855	1.021484	-4.970000	10.850000	-2.940000	629.00	-0.004037	-0.162598
2.72	0.00	0.00	0.00	0.00	0.00	0.00	0.00	0.00	0.00	0.00	0.00	0.00	0.00	0.00	0.00	0.00	-1.204590	-0.207031	1.121094	31.990000	-141.960007	14.910000	0.00	0.000000	0.000000	4.75	4.00	4.25	5.50	1.25	4.25	0.25	5.75	0.75	5.50	5.00	5.75	7.00	4.00	1.25	9.00	-0.146973	0.147461	1.034180	-3.640000	13.160000	-3.360000	625.00	0.019944	-0.163270
2.73	0.00	0.00	0.00	0.00	0.00	0.00	0.00	0.00	0.00	0.00	0.00	0.00	0.00	0.00	0.00	0.00	-1.324219	-0.234863	0.989258	29.260000	-134.960007	12.740000	0.00	0.000000	0.000000	3.75	3.50	3.50	4.50	1.25	4.00	0.00	5.75	1.00	6.00	5.25	5.75	8.00	4.50	1.50	9.50	-0.147949	0.150391	1.030273	-2.380000	15.680000	-3.640000	614.00	0.049411	-0.169372
2.74	0.00	0.00	0.00	0.00	0.00	0.00	0.00	0.00	0.00	0.00	0.00	0.00	0.00	0.00	0.00	0.00	-1.429199	-0.258789	0.861816	23.940001	-124.669998	10.150000	0.00	0.000000	0.000000	3.25	3.00	2.50	3.50	1.00	3.25	0.25	5.25	1.75	6.50	5.50	5.75	8.00	4.75	2.25	10.00	-0.152832	0.157715	1.031738	-0.980000	18.549999	-4.200000	599.00	0.083533	-0.159474
2.75	0.00	0.00	0.00	0.00	0.00	0.00	0.00	0.00	0.00	0.00	0.00	0.00	0.00	0.00	0.00	0.00	-1.528320	-0.270508	0.724121	18.620001	-112.489998	7.350000	0.00	0.000000	0.000000	2.25	2.00	2.00	3.25	0.75	2.00	0.00	5.25	1.75	7.00	5.50	6.00	7.75	5.00	2.50	10.50	-0.154297	0.162109	1.031738	0.770000	21.910000	-4.900000	567.00	0.115235	-0.163592
2.76	0.00	0.00	0.00	0.00	0.00	0.00	0.00	0.00	0.00	0.00	0.00	0.00	0.00	0.00	0.00	0.00	-1.714355	-0.269531	0.450684	10.710000	-80.639999	1.820000	0.00	0.000000	0.000000	1.75	1.50	1.75	2.75	0.50	1.50	0.00	4.75	2.50	7.00	6.00	6.00	7.75	5.25	2.75	11.25	-0.161621	0.165527	1.036621	3.220000	25.900000	-5.950000	558.00	0.141213	-0.155692
2.77	0.00	0.00	0.00	0.00	0.00	0.00	0.00	0.00	0.00	0.00	0.00	0.00	0.00	0.00	0.00	0.00	-1.714355	-0.269531	0.450684	10.710000	-80.639999	1.820000	0.00	0.000000	0.000000	1.00	1.00	1.25	2.00	0.50	1.25	0.00	4.25	2.75	7.75	6.25	6.25	8.25	5.50	2.75	11.50	-0.162598	0.180176	1.041992	6.790000	31.010000	-7.910000	547.00	0.169809	-0.153471
2.78	0.00	0.00	0.00	0.00	0.00	0.00	0.00	0.00	0.00	0.00	0.00	0.00	0.00	0.00	0.00	0.00	-1.784180	-0.270508	0.357422	7.140000	-61.250000	-0.840000	0.00	0.000000	0.000000	0.25	0.50	0.75	1.50	0.50	1.25	0.00	4.00	2.75	8.25	6.75	6.25	7.75	6.25	3.50	11.75	-0.187012	0.140137	1.045898	10.150000	37.310001	-9.380000	542.00	0.198726	-0.148239
2.79	0.00	0.00	0.00	0.00	0.00	0.00	0.00	0.00	0.00	0.00	0.00	0.00	0.00	0.00	0.00	0.00	-1.833008	-0.287598	0.300293	3.570000	-40.670002	-2.940000	0.00	0.000000	0.000000	0.00	0.00	0.50	1.25	0.25	1.00	0.00	3.75	3.00	9.25	6.75	6.25	8.25	6.75	3.50	12.25	-0.191895	0.140625	1.050293	10.850000	44.590000	-7.910000	545.00	0.218054	-0.143511
2.80	0.00	0.00	0.00	0.00	0.00	0.00	0.00	0.00	0.00	0.00	0.00	0.00	0.00	0.00	0.00	0.00	-1.884766	-0.317871	0.290527	-7.000000	1.470000	-5.600000	0.00	0.000000	0.000000	0.00	0.00	0.25	0.75	0.00	1.00	0.00	3.50	3.00	9.25	6.75	6.75	7.75	7.25	3.50	12.50	-0.190918	0.157227	1.051270	12.810000	52.009998	-7.770000	537.00	0.230168	-0.140270
2.81	0.00	0.00	0.00	0.00	0.00	0.00	0.00	0.00	0.00	0.00	0.00	0.00	0.00	0.00	0.00	0.00	-1.884766	-0.317871	0.290527	-7.000000	1.470000	-5.600000	0.00	0.000000	0.000000	0.00	0.00	0.25	0.25	0.00	0.75	0.00	3.00	3.50	9.00	6.75	6.50	7.00	7.75	4.00	12.75	-0.200684	0.166016	1.053711	14.350000	59.220001	-8.400000	528.00	0.244397	-0.124928
2.82	0.00	0.00	0.00	0.00	0.00	0.00	0.00	0.00	0.00	0.00	0.00	0.00	0.00	0.00	0.00	0.00	-0.931641	-0.100098	-0.281250	-46.830002	90.930000	-36.470001	0.00	0.000000	0.000000	0.00	0.00	0.00	0.00	0.00	0.00	0.00	2.50	3.75	9.50	7.00	6.00	7.00	8.75	4.25	13.00	-0.213379	0.172363	1.049805	14.000000	66.080002	-9.380000	525.00	0.262271	-0.110022
2.83	0.00	0.50	0.00	0.00	0.00	0.00	0.00	0.00	0.00	0.00	0.00	0.00	0.00	0.00	0.00	0.00	0.072266	0.103516	1.132324	-56.420002	136.500000	-51.660000	4.00	0.000000	0.000000	0.00	0.00	0.00	0.00	0.00	0.00	0.00	2.00	3.50	9.75	7.00	6.00	6.75	9.00	4.25	13.00	-0.227051	0.166992	1.052734	11.900000	72.099998	-10.640000	518.00	0.266816	-0.105222
2.84	1.00	1.75	0.00	0.50	0.00	0.00	0.00	0.00	0.00	0.00	0.00	0.00	0.00	0.00	0.00	0.00	0.520020	0.327637	1.720703	-60.970001	125.930000	-52.990002	29.00	0.000000	0.000000	0.00	0.00	0.00	0.00	0.00	0.00	0.00	2.00	4.00	9.50	7.00	6.00	6.50	9.25	4.50	13.00	-0.240723	0.172363	1.054199	8.470000	77.629997	-11.620000	524.00	0.268379	-0.099134
2.85	3.50	4.25	0.25	1.50	0.00	0.00	0.00	0.00	0.00	0.00	0.00	0.00	0.00	0.00	0.00	0.00	0.433594	0.217285	1.390137	-52.220001	84.419998	-50.119999	86.00	-0.384701	-0.063494	0.00	0.00	0.00	0.00	0.00	0.00	0.00	1.50	4.00	9.50	6.75	6.00	6.50	9.75	4.75	13.25	-0.250977	0.177246	1.058105	3.780000	84.489998	-12.740000	522.00	0.274255	-0.093522
2.86	4.00	5.50	0.75	2.50	0.00	0.00	0.00	0.00	0.00	0.00	0.00	0.00	0.00	0.00	0.00	0.00	0.026367	0.134766	0.583984	-64.959999	73.779999	-55.160000	117.00	-0.374794	-0.072936	0.00	0.00	0.00	0.00	0.00	0.00	0.00	1.00	3.75	9.25	6.75	5.75	6.25	9.75	4.75	13.00	-0.267090	0.187988	1.082031	0.350000	93.660004	-14.000000	504.00	0.278998	-0.089366
2.87	4.50	6.50	0.75	3.25	0.00	0.00	0.00	0.00	0.00	0.00	0.00	0.00	0.00	0.00	0.00	0.00	-0.191895	0.395508	0.643066	-78.610001	110.809998	-58.029999	138.00	-0.373574	-0.080697	0.00	0.00	0.00	0.00	0.00	0.00	0.00	0.75	4.25	9.00	6.75	5.75	5.75	9.75	5.00	13.00	-0.282227	0.181641	1.099609	-1.750000	105.070000	-15.540000	503.00	0.282408	-0.080678
2.88	5.00	7.75	0.50	3.50	0.00	0.00	0.00	0.00	0.00	0.00	0.00	0.00	0.00	0.00	0.00	0.00	-0.304688	0.649902	1.229004	-75.879997	143.500000	-44.939999	153.00	-0.377866	-0.085918	0.00	0.00	0.00	0.00	0.00	0.00	0.00	0.50	4.25	9.25	6.50	5.25	5.50	9.75	5.00	12.75	-0.302246	0.178711	1.109375	-4.690000	117.320000	-16.799999	491.00	0.285573	-0.073351
2.89	6.25	8.75	1.25	4.25	0.00	0.00	0.00	0.00	0.00	0.00	0.00	0.00	0.00	0.00	0.00	0.00	-0.328613	0.521973	1.827637	-54.670002	147.979996	-17.990000	188.00	-0.373025	-0.075685	0.00	0.00	0.00	0.00	0.00	0.00	0.00	0.25	3.75	9.25	6.25	5.25	5.25	10.00	4.75	12.50	-0.315430	0.182617	1.100098	-8.960000	130.059998	-18.830000	475.00	0.288614	-0.071850
2.90	7.50	10.25	2.00	6.00	0.00	0.00	0.00	0.00	0.00	0.00	0.00	0.00	0.00	0.00	0.00	0.00	-0.308594	0.221191	1.596680	-28.210001	133.000000	7.420000	238.00	-0.367085	-0.077008	0.00	0.00	0.00	0.00	0.00	0.00	0.00	0.25	3.75	9.25	6.00	5.00	4.75	9.75	4.75	12.25	-0.344727	0.197754	1.107910	-13.720000	143.220001	-21.420000	463.00	0.289672	-0.067503
2.91	8.75	12.50	3.25	7.50	0.00	0.50	0.00	0.00	0.00	0.00	0.00	0.00	0.00	0.00	0.00	0.00	-0.263672	-0.042969	1.296875	-10.010000	125.790001	18.059999	301.00	-0.359808	-0.078887	0.00	0.00	0.00	0.00	0.00	0.00	0.00	0.25	3.75	8.50	5.75	5.00	4.50	10.00	4.75	11.75	-0.360352	0.192871	1.125488	-17.430000	156.449997	-24.710001	451.00	0.291464	-0.065160
2.92	9.25	12.75	3.50	8.50	0.00	0.75	0.00	0.25	0.00	0.00	0.00	0.00	0.00	0.00	0.00	0.00	-0.244141	-0.068359	1.354492	-2.730000	121.590004	14.910000	327.00	-0.352575	-0.084704	0.00	0.00	0.00	0.00	0.00	0.00	0.00	0.25	4.00	8.50	5.50	5.00	4.00	10.25	4.50	11.00	-0.424805	0.194336	1.127930	-24.990000	185.360001	-30.170000	444.00	0.292002	-0.055775
2.93	10.25	13.00	4.00	9.00	0.00	1.25	0.00	0.50	0.00	0.00	0.00	0.00	0.00	0.00	0.00	0.00	-0.227051	0.102539	1.778320	-38.360001	88.900002	5.110000	357.00	-0.346035	-0.085146	0.00	0.00	0.00	0.00	0.00	0.00	0.00	0.00	4.00	8.50	5.50	4.75	3.75	10.00	4.50	10.50	-0.424805	0.194336	1.127930	-24.990000	185.360001	-30.170000	431.00	0.294559	-0.049413
2.94	10.50	13.00	4.00	9.00	0.00	1.75	0.00	0.50	0.00	0.00	0.00	0.00	0.00	0.00	0.00	0.00	-0.291992	0.036621	1.291016	-42.070000	49.349998	5.670000	364.00	-0.343761	-0.086450	0.00	0.00	0.00	0.00	0.00	0.00	0.00	0.00	3.75	8.50	5.25	4.50	3.25	10.00	4.25	9.75	-0.451172	0.218750	1.172363	-29.889999	201.180008	-34.230000	413.00	0.295703	-0.043372
2.95	10.75	13.00	4.50	8.75	0.00	3.50	0.00	0.50	0.00	0.00	0.00	0.25	0.00	0.00	0.00	0.00	-0.188477	0.127930	1.124512	-47.040001	39.689999	6.090000	389.00	-0.331453	-0.091704	0.00	0.00	0.00	0.00	0.00	0.00	0.00	0.00	3.75	8.50	5.25	4.25	3.00	9.75	4.00	8.50	-0.486328	0.266113	1.182617	-33.950001	218.750000	-40.180000	398.00	0.294624	-0.036363
2.96	10.25	12.75	4.50	9.00	0.00	3.75	0.00	0.75	0.00	0.00	0.00	0.25	0.25	0.00	0.00	0.00	-0.148926	0.072754	1.024902	-33.180000	19.950001	5.460000	393.00	-0.323345	-0.100257	0.00	0.00	0.00	0.00	0.00	0.00	0.00	0.00	4.00	8.25	5.25	3.75	2.50	10.00	3.75	7.25	-0.638672	0.315918	1.369629	-40.110001	255.430008	-57.049999	383.00	0.295905	-0.020978
2.97	10.25	12.75	4.75	9.25	0.00	4.00	0.00	1.25	0.00	0.00	0.00	0.50	0.50	0.00	0.00	0.00	-0.145508	0.090820	1.070801	-27.580000	15.190001	5.250000	412.00	-0.310970	-0.108705	0.00	0.00	0.00	0.00	0.00	0.00	0.00	0.00	4.00	8.00	5.00	3.75	2.25	9.25	3.50	5.75	-0.787598	0.336426	1.520020	-42.840000	269.779999	-67.199997	361.00	0.293466	-0.015213
2.98	10.25	12.50	4.75	9.00	0.00	4.25	0.00	1.25	0.00	0.00	0.25	0.50	0.50	0.00	0.00	0.00	-0.145508	0.090820	1.070801	-27.580000	15.190001	5.250000	412.00	-0.306493	-0.108737	0.00	0.00	0.00	0.00	0.00	0.00	0.00	0.00	3.75	7.75	4.75	3.25	2.00	8.50	2.75	4.75	-0.826172	0.492188	1.569336	-39.689999	280.140015	-76.580002	328.00	0.291050	-0.008277
2.99	10.50	12.75	5.00	9.50	0.00	4.25	0.00	1.50	0.00	0.25	0.25	0.50	0.75	0.00	0.00	0.00	-0.134277	0.084473	1.003418	-13.020000	2.450000	3.710000	432.00	-0.299521	-0.110961	0.00	0.00	0.00	0.00	0.00	0.00	0.00	0.00	3.75	7.50	4.50	3.00	1.50	7.25	2.50	4.00	-0.849609	0.499023	1.856445	-24.360001	283.010010	-85.680000	301.00	0.288506	-0.001320
3.00	11.25	13.25	5.00	9.50	0.25	4.25	0.00	1.75	0.00	0.00	0.25	0.50	0.75	0.00	0.00	0.00	-0.138184	0.093262	1.007324	-9.520000	-0.700000	3.150000	447.00	-0.301936	-0.110136	0.00	0.00	0.00	0.00	0.00	0.00	0.00	0.00	3.50	7.00	4.25	2.50	1.25	5.75	2.25	3.25	-0.758789	0.397949	1.731445	-21.070000	288.329987	-96.529999	266.00	0.285101	0.001484
3.01	11.75	13.50	5.50	10.75	0.25	4.50	0.00	2.50	0.00	0.00	0.25	0.50	0.75	0.00	0.00	0.00	-0.140625	0.087891	1.001465	-7.140000	-3.150000	2.660000	484.00	-0.295662	-0.116013	0.00	0.00	0.00	0.00	0.00	0.00	0.00	0.00	3.25	6.50	3.75	2.25	0.75	5.25	1.50	2.75	-0.842285	0.410645	1.899902	-25.270000	289.589996	-107.099998	234.00	0.283627	0.013114
3.02	12.00	14.25	6.00	11.00	0.50	4.75	0.25	3.00	0.00	0.25	0.50	0.50	1.00	0.00	0.00	0.00	-0.131836	0.091797	1.010742	-4.970000	-4.550000	2.240000	523.00	-0.282895	-0.115789	0.00	0.00	0.00	0.00	0.00	0.00	0.00	0.00	3.00	6.00	3.25	1.50	0.50	4.75	1.25	2.25	-0.848145	0.444824	1.830566	-25.690001	284.690002	-115.220001	203.00	0.285362	0.028787
3.03	12.50	14.75	7.00	11.25	0.50	5.00	0.25	3.00	0.50	0.50	0.50	0.50	1.50	0.00	0.00	0.00	-0.129883	0.094727	1.017090	-3.290000	-4.550000	1.960000	559.00	-0.272817	-0.109235	0.00	0.00	0.00	0.00	0.00	0.00	0.00	0.00	2.75	5.25	2.75	1.50	0.50	4.00	0.75	1.75	-0.782227	0.415527	1.813965	-18.549999	273.980011	-122.010002	175.00	0.280598	0.030075
3.04	13.00	14.50	7.75	11.50	0.50	5.75	0.25	3.00	0.00	0.25	0.50	0.50	1.50	0.00	0.00	0.00	-0.123047	0.089844	1.006836	-2.590000	-3.920000	1.820000	571.00	-0.279445	-0.111944	0.00	0.00	0.00	0.00	0.00	0.00	0.00	0.00	2.25	4.50	2.25	1.00	0.25	2.75	0.75	1.50	-0.632324	0.318359	1.679199	-13.930000	258.369995	-129.149994	139.00	0.279724	0.033938
3.05	12.75	14.75	7.75	11.75	0.50	6.00	0.25	3.75	0.00	0.25	0.50	0.50	1.50	0.00	0.00	0.00	-0.120605	0.091797	1.008789	-1.540000	-3.220000	1.680000	586.00	-0.274180	-0.119177	0.00	0.00	0.00	0.00	0.00	0.00	0.00	0.00	1.50	4.00	1.75	0.75	0.00	1.75	0.50	1.25	-0.333496	0.341309	1.417969	-11.970000	243.320007	-136.779999	105.00	0.275899	0.031953
3.06	13.00	14.75	7.75	12.00	0.75	6.00	0.25	3.75	0.00	0.50	0.50	0.75	1.50	0.00	0.00	0.25	-0.119629	0.092285	0.998047	-0.280000	-2.380000	1.750000	600.00	-0.268813	-0.118350	0.00	0.00	0.00	0.00	0.00	0.00	0.00	0.00	1.00	3.00	1.25	0.75	0.00	1.00	0.50	0.50	-0.079590	0.395020	1.206543	-12.320000	233.240005	-145.460007	75.00	0.270245	0.023861
3.07	12.75	14.75	7.75	12.00	1.00	6.25	0.25	3.75	0.25	0.50	0.50	0.75	1.50	0.00	0.00	0.00	-0.112793	0.103027	0.988281	-0.000000	-0.980000	1.610000	604.00	-0.265907	-0.116781	0.00	0.00	0.00	0.00	0.00	0.00	0.00	0.00	0.75	2.00	0.75	0.50	0.00	0.75	0.50	0.25	0.484375	0.359863	1.118652	-17.360001	216.509995	-156.589996	52.00	0.275995	0.032167
3.08	13.00	14.50	7.75	12.00	1.25	6.50	0.25	4.00	0.00	0.50	0.75	0.50	2.25	0.00	0.00	0.25	-0.123047	0.099121	1.000488	0.280000	0.490000	1.470000	617.00	-0.260455	-0.122140	0.00	0.00	0.00	0.00	0.00	0.00	0.00	0.00	0.50	1.75	0.75	0.25	0.00	0.50	0.25	0.00	1.770508	0.515137	1.741699	-19.879999	172.270004	-167.860001	39.00	0.000000	0.000000
3.09	13.00	14.50	7.75	11.75	1.25	6.50	0.25	4.00	0.00	0.50	1.00	1.00	2.50	0.00	0.00	0.00	-0.116699	0.100098	1.003906	0.560000	1.400000	1.330000	622.00	-0.254701	-0.123750	0.00	0.00	0.00	0.00	0.00	0.00	0.00	0.00	0.50	1.25	0.75	0.25	0.00	0.50	0.25	0.00	0.374512	1.136230	2.984863	17.639999	69.230003	-146.720001	34.00	0.000000	0.000000
3.10	12.50	14.25	7.75	11.75	1.25	6.50	0.25	4.00	0.25	0.50	0.75	1.25	2.50	0.00	0.00	0.25	-0.117676	0.108887	0.994141	0.490000	2.380000	0.910000	620.00	-0.249358	-0.124540	0.00	0.00	0.00	0.00	0.00	0.00	0.00	0.00	0.25	1.25	0.75	0.00	0.00	0.50	0.25	0.00	1.039062	0.405762	2.003418	13.720000	-44.520000	-104.300003	28.00	0.000000	0.000000
3.11	12.25	13.75	8.00	11.50	1.25	6.50	0.25	4.00	0.50	0.50	1.00	1.50	2.75	0.00	0.50	0.25	-0.114258	0.111328	0.992188	-0.560000	3.290000	0.210000	628.00	-0.235204	-0.123338	0.00	0.00	0.00	0.00	0.00	0.00	0.00	0.00	0.25	1.00	0.50	0.00	0.00	0.50	0.00	0.00	0.666016	0.484375	1.282227	-17.850000	-126.699997	-61.599998	21.00	0.000000	0.000000
3.12	12.00	13.50	7.75	11.25	1.25	6.50	0.25	4.00	0.75	0.50	1.00	1.50	2.75	0.00	0.50	0.50	-0.114746	0.098633	0.994141	-1.470000	4.340000	-0.420000	623.00	-0.230059	-0.123008	0.00	0.00	0.00	0.00	0.00	0.00	0.00	0.00	0.25	0.75	0.50	0.00	0.00	0.50	0.00	0.00	0.418457	0.679199	0.853516	-39.900002	-166.740005	-22.960001	19.00	0.000000	0.000000
3.13	11.75	13.25	7.25	11.25	1.00	6.25	0.25	4.00	0.50	0.50	1.00	1.25	2.75	0.00	0.25	0.50	-0.110840	0.107422	0.988281	-1.680000	4.970000	-0.980000	600.00	-0.235936	-0.127180	0.00	0.00	0.00	0.00	0.00	0.00	0.00	0.00	0.25	0.50	0.50	0.00	0.00	0.25	0.00	0.00	0.405273	0.646484	0.487305	-33.040001	-177.449997	8.470000	14.00	0.000000	0.000000
3.14	11.50	13.00	7.00	10.75	1.25	6.25	0.25	4.00	0.50	0.50	1.00	1.50	2.75	0.00	0.25	0.25	-0.119141	0.102051	0.993164	-1.820000	5.530000	-1.330000	592.00	-0.233033	-0.127583	0.00	0.00	0.00	0.00	0.00	0.00	0.00	0.00	0.25	0.50	0.25	0.00	0.00	0.25	0.00	0.00	0.335449	0.572754	0.375000	-11.760000	-175.139999	33.459999	12.00	0.000000	0.000000
3.15	11.25	12.75	6.75	10.75	1.25	6.00	0.25	4.00	0.50	0.50	1.25	1.50	3.00	0.00	0.25	0.25	-0.125977	0.098633	0.989258	-1.610000	6.300000	-1.610000	587.00	-0.228648	-0.129814	0.00	0.00	0.00	0.00	0.00	0.00	0.00	0.00	0.00	0.50	0.25	0.00	0.00	0.25	0.00	0.00	0.294434	0.441895	0.410645	5.460000	-167.789993	55.369999	9.00	0.000000	0.000000
3.16	11.25	12.50	6.25	10.50	1.25	6.00	0.25	4.00	0.25	0.75	1.25	1.50	3.25	0.00	0.50	0.50	-0.119141	0.095703	0.984375	-1.330000	6.300000	-1.470000	582.00	-0.222703	-0.133815	0.00	0.00	0.00	0.00	0.00	0.00	0.00	0.00	0.00	0.50	0.25	0.00	0.00	0.25	0.00	0.00	0.292969	0.328125	0.507324	9.030000	-162.470001	75.879997	9.00	0.000000	0.000000
3.17	10.75	12.25	6.25	10.25	1.25	5.75	0.25	4.00	0.50	0.75	1.00	1.50	3.75	0.00	0.50	0.50	-0.122070	0.097168	0.987793	-1.330000	6.160000	-1.470000	575.00	-0.217180	-0.134920	0.00	0.00	0.00	0.00	0.00	0.00	0.00	0.00	0.00	0.50	0.25	0.00	0.00	0.25	0.00	0.00	0.276367	0.255371	0.652832	0.140000	-163.100006	96.110001	9.00	0.000000	0.000000
3.18	10.25	12.00	6.00	10.25	1.25	6.00	0.25	4.00	0.50	1.00	1.25	1.75	3.75	0.00	0.50	0.50	-0.116699	0.102051	0.982422	-1.190000	5.740000	-1.540000	575.00	-0.208897	-0.138176	0.00	0.00	0.00	0.00	0.00	0.00	0.00	0.00	0.00	0.50	0.25	0.00	0.00	0.25	0.00	0.00	0.264648	0.243164	0.786621	-12.250000	-169.820007	115.779999	9.00	0.000000	0.000000
3.19	10.00	11.75	6.00	9.50	1.25	5.75	0.25	4.00	0.25	1.00	1.50	2.00	3.75	0.00	0.50	0.50	-0.114746	0.110840	0.979492	-1.820000	5.110000	-1.890000	562.00	-0.205331	-0.140130	0.00	0.00	0.00	0.00	0.00	0.00	0.00	0.00	0.00	0.50	0.25	0.00	0.00	0.00	0.00	0.00	0.230469	0.257324	0.868164	-20.440001	-181.229996	132.789993	7.00	0.000000	0.000000
3.20	10.00	11.75	5.75	9.25	1.25	5.75	0.25	4.00	0.50	0.75	1.50	2.00	3.75	0.00	0.50	0.75	-0.118164	0.101074	0.982910	-2.800000	4.480000	-2.240000	559.00	-0.202850	-0.139833	0.00	0.00	0.00	0.00	0.00	0.00	0.00	0.00	0.00	0.50	0.00	0.00	0.00	0.00	0.00	0.00	0.108398	0.219238	0.998047	-19.950001	-208.809998	152.809998	5.00	0.000000	0.000000
3.21	9.50	11.50	5.75	9.00	1.25	5.75	0.25	4.25	0.50	1.00	1.75	2.00	4.00	0.00	0.50	0.75	-0.119141	0.100098	0.985352	-3.500000	4.060000	-2.450000	560.00	-0.193750	-0.143197	0.00	0.00	0.00	0.00	0.00	0.00	0.00	0.00	0.00	0.50	0.00	0.00	0.00	0.25	0.00	0.00	0.108398	0.219238	0.998047	-19.950001	-208.809998	152.809998	7.00	0.000000	0.000000
3.22	9.25	11.25	5.75	9.00	1.50	6.00	0.25	4.25	0.50	1.00	1.75	2.25	4.25	0.00	0.25	0.75	-0.118164	0.097168	0.980957	-4.130000	3.920000	-2.730000	563.00	-0.191111	-0.145875	0.00	0.00	0.00	0.00	0.00	0.00	0.00	0.00	0.00	0.50	0.00	0.00	0.00	0.25	0.00	0.00	-0.022949	0.203125	1.073730	-21.490000	-236.669998	155.470001	7.00	0.000000	0.000000
3.23	9.00	11.00	5.50	9.00	1.25	5.75	0.25	4.25	0.50	1.00	2.50	2.75	4.50	0.00	0.50	1.00	-0.127441	0.098633	0.980469	-4.830000	4.060000	-2.870000	568.00	-0.175832	-0.150372	0.00	0.00	0.00	0.00	0.00	0.00	0.00	0.00	0.00	0.50	0.00	0.00	0.00	0.00	0.00	0.00	-0.022949	0.203125	1.073730	-21.490000	-236.669998	155.470001	5.00	0.000000	0.000000
3.24	9.00	10.25	5.75	8.75	1.25	5.75	0.25	4.50	0.50	1.25	2.50	2.75	5.25	0.00	0.50	1.00	-0.126465	0.094238	0.994629	-4.830000	4.270000	-2.730000	574.00	-0.166778	-0.152627	0.00	0.00	0.00	0.00	0.00	0.00	0.00	0.00	0.00	0.25	0.00	0.00	0.00	0.00	0.00	0.00	-0.173828	0.259766	1.137207	-20.930000	-255.639999	147.139999	2.00	0.000000	0.000000
3.25	9.00	10.00	5.75	8.75	1.50	5.75	0.25	4.50	0.75	1.25	2.50	3.25	5.25	0.00	0.50	1.00	-0.123047	0.091309	0.994141	-4.830000	4.410000	-2.660000	582.00	-0.160407	-0.150642	0.00	0.00	0.00	0.00	0.00	0.00	0.00	0.00	0.00	0.50	0.00	0.00	0.00	0.25	0.00	0.00	-0.233887	0.271484	1.160156	-18.549999	-261.660004	140.839996	7.00	0.000000	0.000000
3.26	8.75	9.75	5.50	8.75	1.50	6.00	0.25	4.75	0.75	1.75	2.75	3.50	5.50	0.00	0.75	1.00	-0.130371	0.106934	0.995117	-5.460000	4.970000	-2.590000	595.00	-0.147519	-0.154066	0.00	0.00	0.00	0.00	0.00	0.00	0.00	0.00	0.00	0.25	0.00	0.00	0.00	0.00	0.00	0.00	-0.298340	0.311523	1.204102	-17.219999	-264.880005	133.910004	2.00	0.000000	0.000000
3.27	8.75	9.50	5.50	8.75	1.75	6.00	0.25	4.75	1.00	2.00	3.25	3.50	5.75	0.00	0.50	1.25	-0.123047	0.097168	0.989258	-5.600000	4.830000	-2.450000	606.00	-0.140151	-0.151487	0.00	0.00	0.00	0.00	0.00	0.00	0.00	0.00	0.00	0.25	0.00	0.00	0.00	0.00	0.00	0.00	-0.375488	0.377441	1.298828	-15.610000	-266.000000	128.029999	2.00	0.000000	0.000000
3.28	8.50	9.25	5.50	9.00	2.00	5.75	0.25	4.75	0.75	2.00	3.25	3.75	5.75	0.25	0.50	1.50	-0.125488	0.097168	0.994629	-5.600000	5.180000	-2.380000	607.00	-0.136425	-0.153322	0.00	0.00	0.00	0.00	0.00	0.00	0.00	0.00	0.00	0.50	0.00	0.00	0.00	0.25	0.00	0.00	-0.392578	0.436035	1.396973	-12.880000	-266.489990	123.900002	7.00	0.000000	0.000000
3.29	8.50	9.00	5.50	9.00	2.00	5.75	0.25	4.50	0.75	2.00	3.50	4.00	5.75	0.50	0.50	1.75	-0.123047	0.101074	0.987305	-5.950000	5.320000	-2.310000	610.00	-0.130600	-0.151600	0.00	0.00	0.00	0.00	0.00	0.00	0.00	0.00	0.00	0.25	0.00	0.00	0.00	0.25	0.00	0.00	-0.365234	0.474121	1.488770	-10.010000	-268.309998	120.470001	4.00	0.000000	0.000000
3.30	8.00	9.00	5.25	9.00	2.00	5.75	0.50	4.75	0.75	2.00	3.75	4.50	6.00	0.50	1.00	2.25	-0.125488	0.098633	0.985352	-6.440000	5.600000	-2.310000	626.00	-0.115109	-0.155761	0.00	0.00	0.00	0.00	0.00	0.00	0.00	0.00	0.00	0.25	0.00	0.00	0.00	0.00	0.00	0.00	-0.437500	0.528320	1.547852	-4.830000	-270.829987	117.040001	2.00	0.000000	0.000000
3.31	8.00	8.75	5.25	8.75	2.00	5.75	0.50	5.00	1.00	2.75	3.75	4.50	6.50	0.50	1.00	2.25	-0.128906	0.101074	0.993164	-6.650000	6.020000	-2.380000	639.00	-0.105390	-0.154182	0.00	0.00	0.00	0.00	0.00	0.00	0.00	0.00	0.00	0.25	0.00	0.00	0.00	0.00	0.00	0.00	-0.481445	0.530273	1.538086	2.730000	-270.269989	111.790001	2.00	0.000000	0.000000
3.32	8.00	9.00	5.25	8.75	2.00	5.75	0.50	5.00	1.25	2.75	3.75	4.50	7.00	0.50	1.00	2.50	-0.126953	0.090820	0.996582	-5.740000	7.000000	-2.520000	649.00	-0.102147	-0.154441	0.00	0.00	0.00	0.00	0.00	0.00	0.00	0.00	0.00	0.25	0.00	0.00	0.00	0.00	0.00	0.00	-0.554688	0.532227	1.551270	11.480000	-264.459991	102.900002	2.00	0.000000	0.000000
3.33	7.50	9.00	5.25	8.75	2.00	5.50	0.50	5.00	1.25	3.25	4.00	4.75	7.25	0.50	1.00	3.25	-0.133301	0.098145	0.996582	-5.180000	7.700000	-2.520000	657.00	-0.091513	-0.156523	0.00	0.00	0.00	0.00	0.00	0.00	0.00	0.00	0.00	0.25	0.00	0.00	0.00	0.00	0.00	0.00	-0.603516	0.534180	1.573730	21.000000	-254.589996	90.720001	2.00	0.000000	0.000000
3.34	7.50	8.75	5.25	8.50	2.25	5.50	0.50	5.00	1.25	3.50	4.00	5.00	7.25	0.50	1.00	3.50	-0.133301	0.091309	0.991211	-4.760000	8.260000	-2.450000	661.00	-0.086721	-0.155415	0.00	0.00	0.00	0.00	0.00	0.00	0.00	0.00	0.00	0.25	0.00	0.00	0.00	0.00	0.00	0.00	-0.662598	0.548828	1.675293	30.309999	-243.040009	77.489998	2.00	0.000000	0.000000
3.35	7.00	8.25	5.00	8.00	2.25	5.50	0.50	5.00	1.25	3.50	4.25	5.25	8.00	0.50	1.00	3.50	-0.127441	0.093262	0.989258	-4.550000	8.750000	-2.450000	655.00	-0.075516	-0.160841	0.00	0.00	0.00	0.00	0.00	0.00	0.00	0.00	0.00	0.25	0.00	0.00	0.00	0.00	0.00	0.00	-0.712402	0.570312	1.851562	38.360001	-234.779999	65.379997	2.00	0.000000	0.000000
3.36	6.75	8.00	4.75	7.75	2.00	5.25	0.50	5.00	1.25	3.50	4.50	5.50	8.25	0.75	1.00	3.50	-0.127441	0.088379	0.983398	-4.340000	9.170000	-2.520000	650.00	-0.066781	-0.163211	0.00	0.00	0.00	0.00	0.00	0.00	0.00	0.00	0.00	0.50	0.00	0.00	0.00	0.00	0.00	0.00	-0.772461	0.571289	1.973145	43.889999	-232.470001	56.420002	5.00	0.000000	0.000000
3.37	6.50	7.25	4.75	7.50	2.00	5.25	0.50	5.00	1.50	3.50	4.50	5.50	8.75	0.75	1.00	3.75	-0.137695	0.084473	0.990723	-4.130000	9.380000	-2.590000	647.00	-0.057502	-0.164044	0.00	0.00	0.00	0.00	0.00	0.00	0.00	0.00	0.00	0.50	0.00	0.00	0.00	0.00	0.00	0.00	-0.907715	0.604980	2.067383	48.369999	-233.520004	50.189999	5.00	0.000000	0.000000
3.38	6.25	6.75	4.75	7.25	2.00	5.00	0.75	5.25	1.75	3.75	5.00	5.75	8.75	0.75	1.00	3.75	-0.136230	0.090820	0.990723	-4.410000	9.590000	-2.590000	655.00	-0.046158	-0.160715	0.00	0.00	0.00	0.00	0.00	0.00	0.00	0.00	0.00	0.25	0.00	0.00	0.00	0.00	0.00	0.00	-1.047852	0.608398	2.087402	54.950001	-236.529999	44.869999	2.00	0.000000	0.000000
3.39	6.00	6.50	4.50	7.25	1.75	4.75	0.75	5.00	2.25	3.75	5.25	6.25	9.00	1.00	1.25	4.00	-0.134766	0.091797	0.988281	-4.270000	9.660000	-2.590000	660.00	-0.032299	-0.158621	0.00	0.00	0.00	0.00	0.00	0.00	0.00	0.00	0.00	0.00	0.00	0.00	0.00	0.00	0.00	0.00	-1.198730	0.574219	2.032227	63.700001	-239.190002	37.869999	0.00	0.000000	0.000000
3.40	6.00	6.00	4.50	6.75	1.75	4.75	0.75	5.25	2.50	4.00	5.50	6.75	9.00	1.25	1.50	4.00	-0.136719	0.087402	0.989746	-4.480000	10.080000	-2.450000	671.00	-0.020099	-0.156145	0.00	0.00	0.00	0.00	0.00	0.00	0.00	0.00	0.00	0.25	0.00	0.00	0.00	0.00	0.00	0.00	-1.327637	0.519531	1.939453	74.620003	-239.750000	29.330000	2.00	0.000000	0.000000
3.41	5.75	5.75	4.50	6.50	1.75	4.75	0.75	5.25	2.50	4.25	6.00	7.25	9.00	1.50	1.50	4.25	-0.135742	0.081543	0.989258	-4.970000	10.710000	-2.450000	680.00	-0.010340	-0.156047	0.00	0.00	0.00	0.00	0.00	0.00	0.00	0.00	0.00	0.50	0.00	0.00	0.00	0.00	0.00	0.00	-1.428223	0.402344	1.828613	87.570000	-237.509995	19.389999	5.00	0.000000	0.000000
3.42	5.50	5.25	4.25	6.00	1.75	4.50	0.50	5.25	3.00	4.50	6.25	8.25	9.00	1.50	1.75	4.50	-0.133301	0.092773	0.989258	-4.900000	11.340000	-2.310000	684.00	0.005835	-0.156237	0.00	0.00	0.00	0.00	0.00	0.00	0.00	0.00	0.00	0.50	0.00	0.00	0.00	0.00	0.00	0.00	-1.498535	0.230957	1.666992	101.709999	-231.839996	9.870000	5.00	0.000000	0.000000
3.43	5.00	5.25	4.00	5.50	1.75	4.50	0.75	5.25	3.75	4.75	6.50	8.50	9.00	1.75	2.50	4.75	-0.133789	0.097168	0.989258	-5.390000	12.600000	-2.380000	701.00	0.023414	-0.149115	0.00	0.00	0.00	0.00	0.00	0.00	0.00	0.00	0.00	0.25	0.00	0.00	0.00	0.00	0.00	0.00	-1.549316	-0.037109	1.486328	116.760002	-221.690002	4.690000	2.00	0.000000	0.000000
3.44	4.75	4.75	4.00	5.00	1.75	4.50	0.75	5.25	4.00	5.00	7.25	8.50	9.25	2.50	2.75	5.00	-0.142578	0.089355	0.993652	-6.020000	14.210000	-2.870000	714.00	0.038839	-0.144771	0.00	0.00	0.00	0.00	0.00	0.00	0.00	0.00	0.00	0.25	0.00	0.00	0.00	0.00	0.00	0.00	-1.677246	-0.354004	1.321289	130.059998	-207.759995	4.200000	2.00	0.000000	0.000000
3.45	4.50	4.25	3.75	4.50	1.50	4.25	0.75	5.00	4.25	5.25	7.75	9.00	9.50	2.50	3.00	5.25	-0.144043	0.081055	0.998535	-6.090000	15.960000	-3.220000	712.00	0.054062	-0.144174	0.00	0.00	0.00	0.00	0.00	0.00	0.00	0.00	0.00	0.50	0.00	0.00	0.00	0.00	0.00	0.00	-1.720703	-0.736816	1.301270	122.919998	-178.779999	1.680000	5.00	0.000000	0.000000
3.46	4.00	4.00	3.50	4.50	1.50	4.25	0.75	5.00	4.75	5.75	8.50	9.00	9.50	3.25	3.25	5.50	-0.147461	0.095215	0.999023	-5.740000	18.270000	-3.640000	730.00	0.068639	-0.139004	0.00	0.00	0.00	0.00	0.00	0.00	0.00	0.00	0.00	0.25	0.00	0.00	0.00	0.00	0.00	0.00	-1.984863	-0.750488	0.951660	108.500000	-170.100006	-8.960000	2.00	0.000000	0.000000
3.47	3.75	3.75	3.25	4.00	1.25	4.25	0.75	5.00	5.25	6.50	9.00	9.50	9.50	3.75	3.50	6.25	-0.144043	0.080566	1.006348	-5.110000	21.139999	-4.060000	748.00	0.085068	-0.135243	0.00	0.00	0.00	0.00	0.00	0.00	0.00	0.00	0.00	0.25	0.00	0.00	0.00	0.00	0.00	0.00	-2.213867	-0.895508	1.060547	86.239998	-155.470001	-24.150000	2.00	0.000000	0.000000
3.48	3.50	3.50	3.25	3.75	1.00	4.00	0.75	4.75	5.50	7.00	9.50	9.75	9.75	3.75	3.75	6.75	-0.157715	0.090332	1.013184	-3.080000	28.840000	-5.250000	755.00	0.096277	-0.133435	0.00	0.00	0.00	0.00	0.00	0.00	0.00	0.00	0.00	0.25	0.00	0.00	0.00	0.00	0.00	0.00	-2.447754	-0.542480	0.315430	5.600000	-114.169998	-70.559998	2.00	0.000000	0.000000
3.49	3.50	3.25	2.50	3.50	1.00	3.50	0.75	4.50	5.75	8.00	10.00	10.25	9.50	4.00	4.00	6.75	-0.157715	0.090332	1.013184	-3.080000	28.840000	-5.250000	758.00	0.110334	-0.128200	0.00	0.00	0.00	0.00	0.00	0.00	0.00	0.00	0.00	0.25	0.00	0.00	0.00	0.00	0.00	0.00	-2.447754	-0.542480	0.315430	5.600000	-114.169998	-70.559998	2.00	0.000000	0.000000
3.50	3.25	2.50	2.25	3.25	0.75	2.75	0.50	4.50	6.50	8.50	10.50	10.25	9.50	4.50	4.25	7.00	-0.176758	0.095215	1.024902	1.750000	39.270000	-6.370000	757.00	0.128622	-0.122471	0.00	0.00	0.00	0.00	0.00	0.00	0.00	0.00	0.00	0.25	0.00	0.00	0.00	0.25	0.00	0.00	-2.404785	-0.261719	0.118164	18.129999	-44.310001	-120.190002	4.00	0.000000	0.000000
3.51	1.75	1.25	1.50	2.75	0.50	2.00	0.50	4.25	7.25	9.00	11.25	10.50	9.50	5.00	4.25	7.50	-0.174805	0.117676	1.020996	7.210000	46.900002	-8.960000	736.00	0.163768	-0.119159	0.00	0.00	0.00	0.00	0.00	0.00	0.00	0.00	0.00	0.25	0.00	0.00	0.00	0.00	0.00	0.00	-2.404785	-0.261719	0.118164	18.129999	-44.310001	-120.190002	2.00	0.000000	0.000000
3.52	1.00	1.25	1.00	2.00	0.50	1.75	0.25	4.00	7.25	9.50	11.25	10.75	9.50	5.25	4.50	8.25	-0.191406	0.054199	1.024414	13.300000	56.980000	-10.640000	722.00	0.182569	-0.121141	0.00	0.00	0.00	0.00	0.00	0.00	0.00	0.00	0.00	0.25	0.00	0.00	0.00	0.00	0.00	0.00	-2.186035	-0.423340	0.419434	16.730000	18.410000	-119.070000	2.00	0.000000	0.000000
