# Measurement Wed, 01 Mar 2023 - 20:32:35.186 (01:45.716) SN8508 SN8509 Size 4, normal
# No Name, No Comment, No tags
# time	left pressure 1[N/cm²]	left pressure 2[N/cm²]	left pressure 3[N/cm²]	left pressure 4[N/cm²]	left pressure 5[N/cm²]	left pressure 6[N/cm²]	left pressure 7[N/cm²]	left pressure 8[N/cm²]	left pressure 9[N/cm²]	left pressure 10[N/cm²]	left pressure 11[N/cm²]	left pressure 12[N/cm²]	left pressure 13[N/cm²]	left pressure 14[N/cm²]	left pressure 15[N/cm²]	left pressure 16[N/cm²]	left acceleration X[g]	left acceleration Y[g]	left acceleration Z[g]	left angular X[dps]	left angular Y[dps]	left angular Z[dps]	left total force[N]	left center of pressure X[-0.5...+0.5]	left center of pressure Y[-0.5...+0.5]	right pressure 1[N/cm²]	right pressure 2[N/cm²]	right pressure 3[N/cm²]	right pressure 4[N/cm²]	right pressure 5[N/cm²]	right pressure 6[N/cm²]	right pressure 7[N/cm²]	right pressure 8[N/cm²]	right pressure 9[N/cm²]	right pressure 10[N/cm²]	right pressure 11[N/cm²]	right pressure 12[N/cm²]	right pressure 13[N/cm²]	right pressure 14[N/cm²]	right pressure 15[N/cm²]	right pressure 16[N/cm²]	right acceleration X[g]	right acceleration Y[g]	right acceleration Z[g]	right angular X[dps]	right angular Y[dps]	right angular Z[dps]	right total force[N]	right center of pressure X[-0.5...+0.5]	right center of pressure Y[-0.5...+0.5]
0.00	7.50	9.00	4.50	7.25	0.50	2.75	0.00	1.00	0.00	0.25	0.50	0.50	0.75	0.25	0.00	0.00	-0.144043	0.083008	0.991211	-1.330000	1.960000	0.770000	332.00	-0.282837	-0.102411	7.50	9.00	5.50	8.25	0.50	3.75	0.00	1.00	0.00	0.75	0.50	0.25	0.50	0.50	0.00	0.25	-0.117188	0.148438	1.002441	-1.400000	-3.850000	4.060000	365.00	-0.271915	-0.098883
0.01	7.50	9.00	4.50	7.25	0.50	2.75	0.00	0.75	0.00	0.25	0.50	0.50	0.75	0.25	0.00	0.00	-0.146484	0.087402	0.990234	-1.540000	1.960000	0.700000	328.00	-0.285703	-0.099345	7.50	9.00	5.75	8.25	0.50	3.75	0.00	1.00	0.00	0.75	0.50	0.00	0.50	0.25	0.00	0.25	-0.126465	0.147949	1.002441	-1.400000	-3.990000	4.060000	364.00	-0.278739	-0.097742
0.02	7.50	9.00	4.50	7.25	0.75	2.75	0.00	0.75	0.00	0.25	0.50	0.25	1.00	0.00	0.00	0.00	-0.145508	0.081543	0.985352	-1.890000	2.170000	0.560000	328.00	-0.289503	-0.100522	7.50	9.00	5.75	8.25	0.50	4.25	0.00	1.00	0.00	0.50	0.50	0.00	0.50	0.50	0.00	0.25	-0.122070	0.138184	1.000977	-1.330000	-3.850000	4.060000	368.00	-0.276717	-0.099693
0.03	7.50	8.75	4.50	7.75	0.50	2.75	0.00	1.00	0.00	0.00	0.50	0.50	1.00	0.25	0.00	0.25	-0.145508	0.084961	0.977539	-1.610000	2.100000	0.560000	335.00	-0.280694	-0.107943	7.50	9.00	6.00	8.25	0.50	4.25	0.00	1.25	0.00	0.50	0.50	0.00	0.50	0.50	0.00	0.25	-0.124023	0.145508	1.000000	-1.470000	-3.920000	4.060000	374.00	-0.274183	-0.101118
0.04	7.50	8.75	4.50	7.75	0.50	2.75	0.00	1.25	0.00	0.00	0.50	0.50	0.75	0.00	0.00	0.25	-0.145508	0.087891	0.979980	-1.610000	2.030000	0.630000	335.00	-0.284629	-0.110448	7.50	8.50	6.00	8.25	0.50	4.25	0.00	1.25	0.00	0.75	0.50	0.25	0.50	0.50	0.00	0.25	-0.126953	0.146973	1.004395	-1.470000	-3.990000	4.060000	375.00	-0.266203	-0.100592
0.05	7.50	8.75	4.50	7.75	0.50	2.75	0.00	1.00	0.00	0.25	0.25	0.50	1.00	0.25	0.00	0.25	-0.144531	0.091797	0.985352	-1.750000	1.960000	0.630000	335.00	-0.280615	-0.106668	7.50	8.50	6.00	8.75	0.50	4.25	0.00	1.00	0.00	0.75	0.50	0.25	0.25	0.50	0.00	0.25	-0.121094	0.139160	1.001953	-1.400000	-3.990000	4.130000	374.00	-0.271168	-0.097629
0.06	7.50	8.75	4.50	7.50	0.50	2.50	0.00	1.00	0.00	0.00	0.25	0.25	0.75	0.25	0.00	0.25	-0.145996	0.085938	0.987305	-1.890000	2.100000	0.560000	324.00	-0.291804	-0.102132	7.50	8.50	6.25	8.25	0.75	4.00	0.00	1.00	0.00	0.50	0.50	0.00	0.25	0.50	0.00	0.25	-0.123047	0.146484	1.003906	-1.400000	-3.990000	4.130000	367.00	-0.277187	-0.092060
0.07	7.50	8.75	4.50	7.50	0.50	2.50	0.00	1.00	0.00	0.00	0.25	0.50	0.75	0.00	0.00	0.00	-0.146484	0.088379	0.988281	-1.960000	2.100000	0.630000	323.00	-0.294841	-0.104452	7.50	8.50	6.25	8.25	0.75	4.00	0.00	1.00	0.00	0.75	0.50	0.00	0.50	0.50	0.00	0.25	-0.120117	0.139160	1.002441	-1.400000	-3.920000	4.130000	371.00	-0.271474	-0.093046
0.08	7.50	8.75	4.50	7.50	0.50	2.50	0.00	0.75	0.00	0.00	0.25	0.50	1.00	0.00	0.00	0.00	-0.142578	0.081543	0.985352	-1.960000	1.960000	0.700000	321.00	-0.295017	-0.103560	7.50	8.50	6.00	8.25	0.50	3.75	0.00	1.00	0.00	0.75	0.50	0.00	0.50	0.50	0.00	0.25	-0.128906	0.146484	1.000000	-1.400000	-3.990000	4.060000	364.00	-0.273341	-0.094161
0.09	7.50	8.75	4.50	7.25	0.50	2.50	0.00	1.00	0.00	0.00	0.25	0.50	1.00	0.25	0.00	0.00	-0.145996	0.085938	0.989746	-2.100000	1.890000	0.630000	324.00	-0.287784	-0.104018	7.50	8.50	6.00	8.25	0.50	4.25	0.00	1.00	0.00	0.50	0.50	0.00	0.50	0.50	0.00	0.25	-0.125488	0.149902	0.993652	-1.400000	-3.990000	4.060000	366.00	-0.275031	-0.097613
0.10	7.50	9.00	4.50	8.00	0.50	2.75	0.00	1.00	0.00	0.00	0.25	0.50	0.75	0.25	0.00	0.00	-0.145996	0.085938	0.989746	-2.100000	1.890000	0.630000	334.00	-0.290308	-0.106253	7.50	8.50	5.75	8.75	0.50	4.25	0.00	1.00	0.00	0.50	0.50	0.25	0.50	0.50	0.00	0.25	-0.120605	0.143555	1.003418	-1.190000	-3.920000	4.060000	371.00	-0.272119	-0.101904
0.11	7.50	8.75	4.50	8.00	0.50	2.50	0.00	0.75	0.00	0.00	0.25	0.50	0.75	0.25	0.00	0.25	-0.147461	0.081543	0.983398	-1.890000	2.030000	0.490000	328.00	-0.291013	-0.102362	7.50	9.00	5.75	8.75	0.50	4.25	0.00	1.00	0.00	0.50	0.50	0.25	0.50	0.50	0.00	0.25	-0.123047	0.143555	1.002930	-1.330000	-3.920000	4.060000	376.00	-0.273739	-0.102624
0.12	7.50	9.00	4.50	7.75	0.50	2.75	0.00	0.75	0.00	0.00	0.25	0.50	0.75	0.00	0.00	0.00	-0.141602	0.085449	0.984863	-1.960000	1.890000	0.700000	326.00	-0.297492	-0.103999	7.50	9.00	5.75	8.25	0.50	4.25	0.00	1.00	0.00	0.50	0.50	0.25	0.50	0.50	0.00	0.25	-0.126953	0.147949	1.008301	-1.400000	-3.920000	4.130000	371.00	-0.273552	-0.100968
0.13	7.50	9.00	4.50	7.50	0.50	2.75	0.00	0.75	0.00	0.00	0.50	0.25	0.75	0.25	0.00	0.00	-0.143066	0.081543	0.987305	-2.030000	1.820000	0.630000	326.00	-0.293223	-0.100050	7.50	9.00	5.75	8.25	0.50	4.25	0.00	1.00	0.00	0.50	0.50	0.00	0.50	0.50	0.00	0.25	-0.121582	0.149902	1.000000	-1.400000	-3.990000	4.130000	368.00	-0.276717	-0.099693
0.14	7.50	9.00	4.50	7.50	0.50	2.75	0.00	0.75	0.00	0.00	0.25	0.25	0.75	0.25	0.00	0.00	-0.148438	0.084961	0.983887	-2.170000	1.820000	0.700000	323.00	-0.297065	-0.099933	7.50	9.00	5.75	8.75	0.50	4.25	0.00	1.00	0.00	0.50	0.50	0.25	0.50	0.50	0.00	0.25	-0.121094	0.145996	1.001953	-1.330000	-3.920000	4.060000	376.00	-0.273739	-0.102624
0.15	7.50	9.00	4.50	7.50	0.50	2.50	0.00	0.75	0.00	0.00	0.25	0.25	0.75	0.25	0.00	0.00	-0.148438	0.090332	0.985352	-1.960000	1.820000	0.700000	321.00	-0.298188	-0.098592	7.50	9.00	5.75	8.75	0.50	4.00	0.00	1.00	0.00	0.50	0.50	0.00	0.25	0.50	0.00	0.25	-0.114258	0.145996	0.996094	-1.330000	-4.060000	4.270000	369.00	-0.280118	-0.098270
0.16	7.50	9.00	4.75	7.50	0.50	2.50	0.00	0.75	0.00	0.00	0.25	0.50	0.75	0.00	0.00	0.00	-0.144531	0.087402	0.986816	-2.030000	1.890000	0.630000	324.00	-0.298432	-0.100243	7.50	9.25	6.00	8.75	0.50	4.00	0.00	1.00	0.00	0.50	0.25	0.00	0.25	0.50	0.00	0.25	-0.121094	0.147949	0.999023	-1.260000	-3.990000	4.270000	371.00	-0.284058	-0.097251
0.17	7.50	9.00	4.75	7.75	0.75	2.75	0.00	1.00	0.00	0.00	0.00	0.50	0.75	0.25	0.00	0.00	-0.144043	0.085938	0.982422	-2.030000	1.820000	0.630000	335.00	-0.292594	-0.102545	7.50	9.25	6.00	8.75	0.50	3.75	0.00	1.00	0.00	0.50	0.50	0.00	0.50	0.50	0.00	0.25	-0.121094	0.147949	0.999023	-1.260000	-3.990000	4.270000	373.00	-0.279237	-0.098148
0.18	7.50	9.00	4.75	7.50	0.50	2.75	0.00	0.75	0.00	0.00	0.00	0.50	0.75	0.00	0.00	0.00	-0.139648	0.083496	0.987793	-1.960000	1.890000	0.490000	324.00	-0.301183	-0.101452	7.50	9.25	6.00	8.75	0.50	4.25	0.00	1.00	0.00	0.50	0.50	0.00	0.50	0.50	0.00	0.25	-0.123047	0.140625	0.998047	-1.330000	-3.990000	4.200000	378.00	-0.277565	-0.100449
0.19	7.50	9.00	4.50	7.75	0.50	2.75	0.00	0.75	0.00	0.25	0.00	0.50	0.75	0.00	0.00	0.00	-0.147461	0.083984	0.988770	-2.170000	1.890000	0.560000	326.00	-0.297412	-0.102688	7.50	9.25	6.00	8.25	0.50	4.25	0.00	1.00	0.00	0.50	0.50	0.00	0.50	0.50	0.00	0.25	-0.125977	0.145508	0.996582	-1.400000	-3.990000	4.270000	373.00	-0.277430	-0.098774
0.20	7.50	9.00	4.50	7.75	0.50	2.75	0.00	0.75	0.00	0.00	0.00	0.50	0.75	0.00	0.00	0.00	-0.142090	0.086426	0.987305	-2.310000	1.890000	0.560000	324.00	-0.301359	-0.103911	7.50	9.25	6.00	8.25	0.50	4.25	0.00	1.00	0.00	0.50	0.50	0.00	0.50	0.50	0.00	0.25	-0.114746	0.145996	0.998047	-1.470000	-3.990000	3.990000	373.00	-0.277430	-0.098774
0.21	7.50	8.75	4.50	7.50	0.50	2.75	0.00	0.75	0.00	0.00	0.00	0.50	0.75	0.00	0.00	0.00	-0.151367	0.086914	0.982910	-2.450000	1.960000	0.560000	319.00	-0.300708	-0.102550	8.00	9.25	6.00	8.75	0.50	4.25	0.00	0.75	0.00	0.50	0.50	0.00	0.50	0.50	0.00	0.25	-0.114746	0.145996	0.998047	-1.470000	-3.990000	3.990000	379.00	-0.281569	-0.095163
0.22	7.50	8.75	4.50	7.50	0.50	2.75	0.00	0.75	0.00	0.00	0.25	0.25	0.75	0.00	0.00	0.00	-0.143066	0.083984	0.984375	-2.030000	1.820000	0.630000	319.00	-0.300614	-0.101193	8.00	9.25	6.00	8.75	0.50	4.25	0.00	1.00	0.00	0.75	0.25	0.00	0.50	0.25	0.00	0.25	-0.122070	0.148926	0.999512	-1.400000	-3.920000	4.060000	381.00	-0.282600	-0.098148
0.23	7.50	9.00	4.50	7.50	0.50	2.75	0.00	0.75	0.00	0.00	0.50	0.25	0.75	0.00	0.00	0.25	-0.142090	0.090332	0.986816	-1.890000	1.820000	0.630000	325.00	-0.294949	-0.102537	8.00	9.25	6.00	8.75	0.50	4.25	0.00	0.75	0.00	0.50	0.25	0.00	0.50	0.50	0.00	0.25	-0.117188	0.144531	0.997559	-1.330000	-3.920000	4.060000	377.00	-0.284794	-0.095031
0.24	8.00	9.00	4.50	7.50	0.50	2.75	0.00	0.75	0.00	0.00	0.25	0.25	0.75	0.25	0.00	0.00	-0.144531	0.083008	0.982422	-2.170000	1.820000	0.560000	328.00	-0.298599	-0.096921	8.00	9.25	5.75	8.75	0.50	4.25	0.00	0.75	0.00	0.50	0.25	0.00	0.50	0.50	0.00	0.25	-0.123535	0.149414	0.998047	-1.330000	-3.850000	3.990000	374.00	-0.284926	-0.096289
0.25	8.00	9.00	4.50	7.50	0.50	2.75	0.00	0.75	0.00	0.00	0.00	0.50	0.75	0.00	0.00	0.00	-0.147461	0.086426	0.990723	-2.100000	1.890000	0.630000	326.00	-0.302945	-0.099894	8.00	9.25	6.00	8.75	0.50	4.25	0.00	1.00	0.25	0.50	0.25	0.00	0.50	0.50	0.00	0.25	-0.120605	0.143066	1.002930	-1.610000	-3.780000	4.060000	383.00	-0.278094	-0.094838
0.26	7.50	9.00	4.50	7.25	0.50	2.75	0.00	0.75	0.00	0.00	0.25	0.50	0.75	0.00	0.00	0.00	-0.144043	0.079102	0.992188	-2.030000	1.820000	0.630000	321.00	-0.297647	-0.102112	7.50	9.25	5.75	8.25	0.50	3.75	0.00	1.00	0.00	0.50	0.25	0.00	0.50	0.50	0.00	0.25	-0.117676	0.148926	1.000000	-1.610000	-3.780000	4.060000	363.00	-0.282552	-0.097597
0.27	8.00	9.00	4.50	7.50	0.50	2.75	0.00	0.50	0.00	0.00	0.50	0.50	0.75	0.25	0.00	0.00	-0.144531	0.086914	0.983398	-1.890000	1.820000	0.630000	330.00	-0.294088	-0.095403	8.00	9.50	6.25	8.25	0.50	4.00	0.00	0.75	0.00	0.50	0.25	0.00	0.50	0.50	0.00	0.25	-0.123047	0.151367	1.000000	-1.470000	-3.780000	4.060000	374.00	-0.286250	-0.091246
0.28	8.00	8.75	4.75	7.50	0.50	2.75	0.00	0.50	0.00	0.00	0.25	0.50	0.75	0.00	0.00	0.00	-0.146973	0.085938	0.989258	-1.820000	1.960000	0.560000	326.00	-0.301131	-0.094984	8.00	9.50	6.25	8.75	0.50	4.00	0.00	0.75	0.00	0.50	0.25	0.00	0.25	0.50	0.00	0.25	-0.122070	0.148438	0.999512	-1.540000	-3.780000	3.990000	377.00	-0.288678	-0.091065
0.29	8.00	8.75	4.75	7.50	0.50	2.75	0.00	0.75	0.00	0.00	0.00	0.25	0.75	0.00	0.00	0.00	-0.144531	0.084961	0.984863	-1.750000	1.820000	0.630000	324.00	-0.305725	-0.096519	7.50	9.25	6.25	8.25	0.50	4.25	0.00	1.00	0.00	0.50	0.25	0.00	0.25	0.50	0.00	0.25	-0.120605	0.145020	0.996582	-1.540000	-3.710000	3.990000	371.00	-0.282998	-0.095418
0.30	8.00	9.00	4.75	7.75	0.50	2.75	0.00	1.25	0.00	0.00	0.00	0.25	0.75	0.00	0.00	0.00	-0.150391	0.083984	0.986328	-1.890000	1.820000	0.560000	336.00	-0.300211	-0.104027	7.50	9.25	6.25	8.25	0.50	4.25	0.00	1.00	0.00	0.50	0.50	0.00	0.50	0.50	0.00	0.25	-0.125488	0.146973	1.003418	-1.470000	-3.780000	3.990000	375.00	-0.277349	-0.097495
0.31	8.00	9.00	4.75	7.50	0.50	2.75	0.00	1.25	0.00	0.00	0.25	0.50	0.75	0.00	0.00	0.00	-0.142578	0.084473	0.989258	-1.960000	1.820000	0.560000	338.00	-0.292944	-0.104581	7.50	9.25	6.00	8.25	0.50	4.25	0.00	1.00	0.00	0.50	0.50	0.00	0.50	0.50	0.00	0.25	-0.121582	0.146484	1.000488	-1.540000	-3.780000	3.920000	373.00	-0.277430	-0.098774
0.32	7.50	9.00	4.50	7.25	0.50	2.75	0.00	1.00	0.00	0.00	0.25	0.50	0.75	0.00	0.00	0.25	-0.145020	0.083984	0.989746	-1.890000	1.820000	0.560000	326.00	-0.292085	-0.106008	7.50	9.25	6.00	9.25	0.50	4.25	0.00	0.75	0.00	0.50	0.25	0.00	0.50	0.50	0.00	0.25	-0.121582	0.145508	0.999512	-1.540000	-3.850000	4.060000	377.00	-0.283342	-0.099320
0.33	7.50	9.00	4.75	7.25	0.50	2.75	0.00	1.25	0.00	0.00	0.50	0.25	0.75	0.00	0.00	0.00	-0.139160	0.082031	0.985352	-1.750000	1.820000	0.630000	331.00	-0.291314	-0.105412	7.50	9.25	6.25	9.25	0.50	4.25	0.00	0.75	0.00	0.50	0.25	0.00	0.50	0.50	0.00	0.25	-0.119141	0.141602	1.002441	-1.540000	-3.850000	4.060000	379.00	-0.283222	-0.098051
0.34	7.50	9.00	4.75	7.50	0.50	2.75	0.00	1.00	0.00	0.00	0.00	0.50	0.75	0.00	0.00	0.00	-0.139648	0.085449	0.984863	-1.820000	1.890000	0.560000	328.00	-0.298118	-0.104534	7.50	9.25	6.25	8.75	0.50	4.25	0.00	0.75	0.00	0.75	0.25	0.00	0.50	0.50	0.00	0.25	-0.121582	0.141602	1.000488	-1.610000	-3.850000	4.060000	377.00	-0.279859	-0.095340
0.35	8.00	9.00	4.75	7.50	0.50	2.75	0.00	1.00	0.00	0.25	0.25	0.25	0.75	0.00	0.00	0.00	-0.140625	0.083984	0.979980	-1.680000	1.890000	0.560000	335.00	-0.295690	-0.099023	7.50	9.25	6.00	8.75	0.50	4.25	0.00	0.75	0.00	0.75	0.50	0.00	0.50	0.50	0.00	0.25	-0.120605	0.149414	0.998047	-1.540000	-3.920000	4.130000	377.00	-0.276742	-0.096722
0.36	7.50	9.00	4.75	7.75	0.50	2.50	0.00	0.75	0.00	0.25	0.25	0.25	0.75	0.00	0.00	0.00	-0.148926	0.087891	0.984863	-1.750000	1.750000	0.630000	326.00	-0.298177	-0.098562	7.50	9.25	6.00	8.75	0.50	4.00	0.00	0.75	0.00	0.50	0.50	0.00	0.25	0.50	0.00	0.25	-0.118164	0.142578	0.994141	-1.470000	-3.850000	4.060000	370.00	-0.283311	-0.094602
0.37	7.50	9.00	4.75	7.75	0.50	2.75	0.00	0.75	0.00	0.25	0.00	0.50	0.75	0.00	0.00	0.00	-0.139648	0.084473	0.987305	-1.470000	1.610000	0.700000	329.00	-0.297164	-0.101198	7.50	9.00	6.00	8.75	0.50	4.25	0.00	1.00	0.00	0.50	0.25	0.00	0.25	0.50	0.00	0.25	-0.121582	0.143555	1.001953	-1.540000	-3.920000	3.920000	371.00	-0.282423	-0.098037
0.38	8.00	9.00	4.75	7.50	0.50	2.75	0.00	0.75	0.00	0.25	0.00	0.50	1.00	0.00	0.00	0.00	-0.146973	0.085449	0.989258	-1.680000	1.750000	0.630000	333.00	-0.295953	-0.099440	7.50	9.25	5.75	8.75	0.50	4.25	0.00	1.00	0.00	0.50	0.00	0.25	0.25	0.50	0.00	0.25	-0.120117	0.142578	0.999023	-1.540000	-3.920000	4.060000	371.00	-0.283383	-0.100882
0.39	8.00	9.00	4.75	7.50	0.50	3.00	0.00	0.50	0.00	0.00	0.25	0.50	0.75	0.00	0.00	0.00	-0.143066	0.087402	0.985352	-1.890000	1.960000	0.490000	330.00	-0.300745	-0.096777	7.50	9.25	6.00	8.25	0.50	4.25	0.00	1.00	0.00	0.50	0.50	0.00	0.25	0.50	0.00	0.25	-0.119629	0.144531	1.001465	-1.400000	-3.780000	3.990000	371.00	-0.279833	-0.096822
0.40	8.00	9.00	4.50	7.50	0.50	2.75	0.00	0.50	0.00	0.25	0.50	0.50	0.75	0.00	0.00	0.00	-0.147949	0.088867	0.981934	-1.750000	1.960000	0.490000	330.00	-0.294417	-0.095870	7.50	9.25	6.25	8.75	0.50	4.25	0.00	0.75	0.00	0.50	0.25	0.00	0.50	0.25	0.00	0.25	-0.120605	0.143555	1.000488	-1.470000	-3.920000	3.920000	373.00	-0.286810	-0.097788
0.41	7.50	9.00	4.50	7.25	0.50	2.75	0.00	0.75	0.00	0.25	0.50	0.50	0.75	0.00	0.00	0.00	-0.146484	0.085449	0.983398	-1.750000	1.890000	0.560000	326.00	-0.289882	-0.101003	7.50	9.25	6.25	8.75	0.50	4.25	0.00	0.75	0.00	0.50	0.25	0.00	0.25	0.25	0.00	0.25	-0.117188	0.145508	0.996094	-1.470000	-4.060000	4.060000	371.00	-0.289265	-0.095829
0.42	7.50	9.00	4.50	7.25	0.50	2.75	0.00	0.75	0.00	0.25	0.50	0.50	0.75	0.00	0.00	0.00	-0.140625	0.084961	0.989746	-1.960000	1.820000	0.560000	326.00	-0.289882	-0.101003	7.50	9.25	6.00	8.75	0.50	4.25	0.00	0.75	0.00	0.50	0.25	0.00	0.25	0.25	0.00	0.25	-0.118652	0.148438	1.003906	-1.470000	-3.920000	3.920000	368.00	-0.289430	-0.097114
0.43	7.50	9.00	4.50	7.50	0.50	3.50	0.00	1.00	0.00	0.00	0.50	0.50	0.75	0.00	0.00	0.00	-0.144531	0.085449	0.986816	-1.820000	1.750000	0.560000	337.00	-0.287697	-0.109888	7.50	9.25	5.75	8.75	0.25	4.25	0.00	0.75	0.00	0.50	0.50	0.00	0.50	0.25	0.00	0.25	-0.113770	0.147949	1.004395	-1.330000	-3.780000	4.060000	367.00	-0.284869	-0.101594
0.44	7.50	9.00	4.50	7.50	0.50	3.50	0.00	0.75	0.00	0.00	0.50	0.25	0.75	0.00	0.00	0.00	-0.142578	0.094238	0.986816	-1.680000	1.890000	0.560000	331.00	-0.294206	-0.105579	7.50	9.25	6.25	8.75	0.50	4.25	0.00	1.00	0.00	0.50	0.50	0.00	0.50	0.25	0.00	0.25	-0.125488	0.148438	0.999023	-1.190000	-3.850000	3.920000	378.00	-0.281044	-0.100604
0.45	7.50	8.75	4.50	7.25	0.50	2.75	0.00	0.75	0.00	0.00	0.50	0.50	0.75	0.00	0.00	0.25	-0.141113	0.094238	0.982422	-1.680000	1.890000	0.560000	323.00	-0.290445	-0.102614	7.50	9.25	6.25	8.75	0.50	4.25	0.00	1.00	0.00	0.50	0.25	0.00	0.25	0.25	0.00	0.25	-0.125488	0.148438	0.999023	-1.190000	-3.850000	3.920000	374.00	-0.286691	-0.098581
0.46	7.50	8.75	4.50	7.25	0.50	2.75	0.00	0.75	0.00	0.25	0.50	0.50	0.75	0.00	0.00	0.00	-0.144531	0.083008	0.984375	-1.890000	2.030000	0.490000	324.00	-0.289058	-0.100580	7.50	9.25	6.25	8.75	0.50	4.25	0.00	1.00	0.00	0.50	0.50	0.00	0.50	0.50	0.00	0.25	-0.119629	0.150879	1.003906	-1.190000	-3.850000	3.990000	380.00	-0.277483	-0.099175
0.47	7.50	8.75	4.50	7.25	0.75	2.75	0.00	0.75	0.00	0.25	0.50	0.25	0.50	0.00	0.00	0.00	-0.143066	0.089844	0.991211	-1.960000	1.960000	0.560000	322.00	-0.294352	-0.095623	7.50	9.25	6.25	8.75	0.50	4.25	0.00	0.75	0.00	0.50	0.50	0.00	0.25	0.50	0.00	0.25	-0.122559	0.144043	1.001465	-1.120000	-3.850000	3.990000	375.00	-0.282319	-0.094533
0.48	7.50	8.75	4.50	7.50	0.50	4.00	0.00	0.75	0.00	0.25	0.50	0.50	0.50	0.00	0.00	0.00	-0.143555	0.090332	0.986816	-1.890000	1.890000	0.560000	337.00	-0.286710	-0.105728	7.50	9.00	6.25	8.75	0.50	4.00	0.00	0.75	0.00	0.50	0.25	0.00	0.50	0.50	0.00	0.25	-0.120117	0.143066	1.003418	-1.260000	-3.850000	4.060000	370.00	-0.283284	-0.094767
0.49	7.50	8.75	4.50	7.25	0.50	3.75	0.00	0.75	0.00	0.00	0.50	0.50	0.75	0.00	0.00	0.00	-0.145020	0.080078	0.985352	-1.750000	1.960000	0.490000	332.00	-0.288750	-0.106929	7.50	9.00	6.00	8.75	0.50	4.00	0.00	0.75	0.00	0.50	0.00	0.00	0.50	0.50	0.00	0.00	-0.120117	0.143066	1.003418	-1.260000	-3.850000	4.060000	364.00	-0.288973	-0.095169
0.50	7.25	8.75	4.50	7.25	0.50	4.00	0.25	1.00	0.00	0.25	0.50	0.50	0.75	0.00	0.00	0.25	-0.137695	0.088867	0.981445	-1.890000	2.030000	0.490000	342.00	-0.274357	-0.108527	7.50	9.00	6.25	8.75	0.50	4.25	0.00	0.75	0.00	0.50	0.25	0.00	0.25	0.25	0.00	0.00	-0.128418	0.144043	1.002930	-1.190000	-3.850000	4.060000	367.00	-0.290745	-0.094686
0.51	7.25	8.75	4.50	7.25	0.50	4.00	0.00	1.25	0.00	0.25	0.50	0.50	0.75	0.00	0.00	0.00	-0.144531	0.084961	0.985840	-2.030000	2.030000	0.420000	341.00	-0.277636	-0.114252	7.50	9.00	6.25	8.75	0.50	4.25	0.00	0.75	0.00	0.50	0.25	0.00	0.25	0.25	0.00	0.25	-0.126465	0.148438	0.999023	-1.050000	-3.780000	3.920000	368.00	-0.288537	-0.095428
0.52	7.50	8.75	4.50	7.25	0.50	3.50	0.00	1.00	0.00	0.00	0.50	0.50	0.75	0.00	0.00	0.00	-0.148438	0.084961	0.981934	-1.820000	1.890000	0.490000	333.00	-0.286882	-0.108665	7.50	9.00	6.25	8.75	0.50	3.75	0.00	0.75	0.00	0.50	0.50	0.00	0.50	0.25	0.00	0.25	-0.123535	0.145996	0.996582	-1.120000	-3.920000	4.060000	368.00	-0.284550	-0.095146
0.53	7.50	8.75	4.50	7.50	0.50	3.50	0.00	1.00	0.00	0.25	0.50	0.50	0.75	0.00	0.00	0.00	-0.144531	0.081543	0.985352	-1.890000	1.960000	0.350000	338.00	-0.283172	-0.108313	8.00	9.00	6.25	8.75	0.50	3.75	0.00	1.00	0.00	0.50	0.25	0.00	0.50	0.25	0.00	0.00	-0.123535	0.147949	0.999023	-1.260000	-3.920000	4.060000	372.00	-0.288965	-0.094457
0.54	7.50	8.75	4.75	7.50	0.50	3.50	0.00	1.00	0.00	0.25	0.50	0.50	0.75	0.00	0.00	0.00	-0.148926	0.081543	0.985352	-1.890000	2.030000	0.350000	340.00	-0.283039	-0.106829	7.50	9.00	6.25	8.75	0.50	3.75	0.00	1.00	0.00	0.50	0.25	0.00	0.25	0.25	0.00	0.00	-0.123047	0.149414	0.998535	-1.260000	-3.920000	4.130000	366.00	-0.289983	-0.095086
0.55	7.50	8.50	4.75	7.50	0.50	3.00	0.00	0.75	0.00	0.25	0.50	0.50	0.75	0.00	0.00	0.25	-0.145508	0.080566	0.985352	-1.680000	1.820000	0.560000	331.00	-0.284571	-0.101739	7.50	9.00	6.25	8.75	0.50	3.75	0.00	0.75	0.00	0.50	0.25	0.00	0.25	0.25	0.00	0.00	-0.118652	0.143555	1.000488	-1.190000	-3.780000	4.060000	362.00	-0.292648	-0.092238
0.56	7.50	8.50	4.75	7.50	0.50	3.00	0.00	0.75	0.00	0.25	0.50	0.50	0.75	0.00	0.00	0.25	-0.145996	0.085449	0.987305	-1.750000	1.750000	0.560000	331.00	-0.284571	-0.101739	7.50	9.25	6.25	8.25	0.50	4.25	0.00	0.75	0.00	0.50	0.25	0.00	0.50	0.25	0.00	0.25	-0.122559	0.147461	0.997070	-1.190000	-3.780000	3.990000	367.00	-0.286799	-0.096053
0.57	7.50	8.50	4.75	7.25	0.50	3.00	0.00	1.00	0.00	0.50	0.50	0.50	0.75	0.00	0.00	0.00	-0.150391	0.087891	0.982422	-1.890000	1.890000	0.350000	333.00	-0.280375	-0.101863	7.50	9.25	6.00	8.25	0.50	4.25	0.00	0.75	0.00	0.50	0.25	0.00	0.50	0.25	0.00	0.25	-0.122559	0.144531	1.003418	-1.260000	-3.780000	3.990000	365.00	-0.286949	-0.097349
0.58	7.50	8.50	4.75	7.25	0.75	3.00	0.00	1.25	0.00	0.50	0.50	0.50	0.75	0.00	0.00	0.00	-0.145020	0.082520	0.981445	-1.750000	2.100000	0.420000	339.00	-0.276476	-0.103628	7.50	9.25	6.25	8.75	0.50	4.00	0.00	0.75	0.00	0.50	0.00	0.00	0.50	0.25	0.00	0.25	-0.121094	0.148438	0.998535	-1.190000	-3.640000	3.920000	368.00	-0.291059	-0.096485
0.59	7.25	8.50	4.50	7.25	0.50	3.00	0.00	1.25	0.00	0.50	0.50	0.50	0.75	0.00	0.00	0.25	-0.145020	0.082520	0.981445	-1.750000	2.100000	0.420000	333.00	-0.274408	-0.108653	7.50	9.25	6.25	8.75	0.50	4.00	0.00	1.00	0.00	0.50	0.25	0.00	0.25	0.25	0.00	0.25	-0.125977	0.145508	0.999023	-1.260000	-3.780000	3.990000	371.00	-0.287591	-0.097413
0.60	7.25	8.50	4.50	7.25	0.50	3.50	0.00	1.00	0.00	0.25	0.50	0.50	0.75	0.00	0.00	0.25	-0.144043	0.081543	0.984863	-1.820000	2.170000	0.420000	332.00	-0.279011	-0.109385	7.50	9.25	6.00	8.75	0.50	4.25	0.00	1.00	0.00	0.50	0.25	0.00	0.50	0.25	0.00	0.25	-0.120605	0.147949	1.000488	-1.330000	-3.780000	3.920000	373.00	-0.284401	-0.101804
0.61	7.25	8.50	4.50	7.25	0.50	3.75	0.00	1.25	0.00	0.50	0.50	0.75	0.75	0.00	0.00	0.25	-0.144043	0.081543	0.984863	-1.820000	2.170000	0.420000	343.00	-0.268339	-0.113546	7.50	9.25	6.25	8.75	0.50	4.00	0.00	1.00	0.00	0.50	0.25	0.00	0.50	0.25	0.00	0.25	-0.123047	0.147461	0.996582	-1.400000	-3.710000	3.920000	373.00	-0.285151	-0.099358
0.62	7.25	8.50	4.50	7.25	0.75	3.00	0.00	1.25	0.00	0.50	0.50	0.50	0.75	0.00	0.00	0.25	-0.140625	0.082031	0.991699	-1.750000	2.100000	0.420000	335.00	-0.273291	-0.107379	7.50	9.25	6.25	8.75	0.50	4.25	0.00	1.00	0.00	0.50	0.25	0.00	0.50	0.25	0.00	0.00	-0.124512	0.140137	1.003418	-1.330000	-3.640000	3.990000	375.00	-0.286421	-0.099797
0.63	7.25	8.25	4.50	7.25	0.75	3.00	0.00	1.25	0.00	0.25	0.50	0.75	0.75	0.00	0.00	0.50	-0.145508	0.082520	0.983398	-1.750000	2.240000	0.420000	334.00	-0.270192	-0.110354	7.50	9.00	6.00	8.25	0.50	4.25	0.00	1.00	0.00	0.50	0.25	0.00	0.25	0.25	0.00	0.00	-0.122070	0.146973	1.000488	-1.330000	-3.710000	3.920000	363.00	-0.288301	-0.097026
0.64	7.25	8.25	4.50	7.25	0.75	3.00	0.00	1.25	0.00	0.25	0.50	0.50	0.75	0.00	0.00	0.50	-0.146484	0.083984	0.986328	-1.820000	2.170000	0.280000	332.00	-0.273677	-0.109009	7.50	9.00	6.00	8.25	0.50	4.00	0.00	1.00	0.00	0.50	0.25	0.00	0.50	0.25	0.00	0.00	-0.121582	0.143555	1.000977	-1.260000	-3.570000	3.850000	363.00	-0.286718	-0.097824
0.65	7.00	8.00	4.50	6.75	0.75	3.00	0.25	1.25	0.00	0.50	0.50	0.50	0.75	0.00	0.00	0.25	-0.143555	0.085449	0.991699	-1.750000	2.240000	0.350000	327.00	-0.266517	-0.102656	7.50	9.00	6.00	8.75	0.50	3.75	0.00	1.00	0.00	0.50	0.25	0.00	0.50	0.25	0.00	0.00	-0.118164	0.144043	1.001953	-1.190000	-3.640000	3.850000	365.00	-0.287646	-0.098378
0.66	7.00	8.00	4.50	6.75	0.50	3.75	0.25	1.50	0.00	0.50	0.50	0.50	0.75	0.00	0.00	0.25	-0.146973	0.079590	0.985840	-1.610000	2.240000	0.420000	336.00	-0.262399	-0.110666	7.50	8.50	6.00	8.75	0.50	3.25	0.00	1.00	0.00	0.50	0.25	0.00	0.50	0.25	0.00	0.00	-0.121582	0.145020	1.000977	-1.400000	-3.640000	3.850000	356.00	-0.288013	-0.095136
0.67	7.00	8.50	4.50	7.25	0.75	3.75	0.00	1.50	0.00	0.50	0.50	0.75	0.75	0.00	0.00	0.25	-0.142090	0.088867	0.985352	-1.820000	2.240000	0.280000	346.00	-0.263808	-0.116593	7.50	9.25	6.00	8.75	0.50	3.75	0.00	1.25	0.00	0.50	0.25	0.00	0.50	0.25	0.00	0.00	-0.119629	0.147949	0.999512	-1.190000	-3.780000	3.990000	371.00	-0.285797	-0.101514
0.68	7.00	8.50	4.50	7.25	0.75	3.75	0.25	1.50	0.00	0.50	0.50	0.50	1.00	0.00	0.00	0.50	-0.147949	0.085449	0.982422	-1.890000	2.380000	0.280000	351.00	-0.258953	-0.114454	7.50	9.50	6.00	8.25	0.50	3.25	0.00	1.00	0.00	0.50	0.00	0.00	0.50	0.25	0.00	0.00	-0.119629	0.145020	0.997070	-1.260000	-3.780000	3.990000	357.00	-0.294501	-0.094848
0.69	7.00	8.25	4.50	6.75	0.50	3.75	0.25	1.25	0.00	0.50	0.75	0.50	1.00	0.00	0.00	0.50	-0.144043	0.084961	0.983887	-1.820000	2.450000	0.420000	340.00	-0.257648	-0.110975	7.50	9.25	6.00	8.25	0.50	4.25	0.00	0.75	0.00	0.50	0.00	0.00	0.50	0.25	0.00	0.25	-0.132324	0.146484	1.004395	-1.120000	-3.710000	3.920000	363.00	-0.290335	-0.097227
0.70	6.75	8.25	4.50	7.25	0.75	3.00	0.25	1.50	0.00	0.50	0.75	0.75	1.00	0.00	0.00	0.25	-0.144043	0.086426	0.989258	-1.680000	2.240000	0.490000	342.00	-0.254879	-0.112785	7.50	9.25	6.00	8.75	0.50	4.25	0.00	1.00	0.00	0.50	0.00	0.00	0.50	0.25	0.00	0.25	-0.122070	0.146973	1.007324	-1.190000	-3.710000	3.920000	371.00	-0.287693	-0.101713
0.71	6.75	8.00	4.50	7.25	1.00	3.50	0.25	1.50	0.00	0.50	0.50	0.75	1.00	0.00	0.00	0.50	-0.142578	0.079590	0.982910	-1.890000	2.310000	0.420000	346.00	-0.252586	-0.114200	7.50	9.25	6.00	8.75	0.50	4.25	0.00	1.00	0.00	0.50	0.00	0.00	0.50	0.25	0.00	0.00	-0.123047	0.147461	1.002441	-1.120000	-3.710000	4.060000	370.00	-0.289883	-0.100998
0.72	6.75	7.75	4.50	7.25	1.00	3.50	0.00	1.50	0.00	0.50	0.50	0.75	1.25	0.00	0.00	0.25	-0.144531	0.086914	0.987793	-1.890000	2.380000	0.350000	342.00	-0.254751	-0.118822	7.50	9.00	6.00	8.75	0.50	4.25	0.00	1.00	0.00	0.25	0.00	0.00	0.50	0.25	0.00	0.00	-0.118164	0.150391	1.000977	-1.190000	-3.780000	3.920000	365.00	-0.292605	-0.101696
0.73	6.75	8.00	4.50	6.75	1.00	3.00	0.00	1.50	0.00	0.50	0.50	0.75	1.50	0.00	0.00	0.25	-0.151367	0.085938	0.982910	-1.680000	2.240000	0.490000	336.00	-0.254276	-0.117286	7.50	9.25	6.00	8.75	0.50	4.25	0.00	1.00	0.00	0.25	0.00	0.00	0.50	0.25	0.00	0.25	-0.118164	0.150391	1.000977	-1.190000	-3.780000	3.920000	369.00	-0.291100	-0.102781
0.74	6.50	8.00	4.50	7.25	0.75	2.75	0.25	1.25	0.00	0.50	0.75	0.75	1.00	0.00	0.00	0.25	-0.144531	0.080566	0.993164	-1.610000	2.030000	0.560000	332.00	-0.256105	-0.109903	7.50	9.25	6.00	8.75	0.50	4.25	0.00	1.00	0.00	0.25	0.25	0.00	0.50	0.25	0.00	0.25	-0.117188	0.148438	0.988281	-1.120000	-3.780000	3.990000	371.00	-0.287765	-0.102866
0.75	6.50	8.00	4.50	7.25	0.75	2.50	0.00	1.25	0.00	0.50	0.75	1.00	1.00	0.00	0.00	0.50	-0.153809	0.081543	0.985840	-1.610000	1.960000	0.560000	329.00	-0.254702	-0.114532	8.00	9.00	5.75	8.75	0.50	4.25	0.00	1.00	0.00	0.25	0.00	0.00	0.50	0.25	0.00	0.25	-0.122559	0.149414	0.997070	-1.050000	-3.780000	3.990000	369.00	-0.292003	-0.101032
0.76	6.75	7.75	4.50	7.25	1.00	3.75	0.00	1.25	0.00	0.50	0.75	0.75	1.25	0.00	0.00	0.50	-0.148438	0.078125	0.983398	-1.680000	1.960000	0.560000	344.00	-0.250882	-0.117864	8.00	9.00	6.25	8.75	0.50	4.25	0.00	1.00	0.00	0.25	0.00	0.00	0.50	0.25	0.00	0.00	-0.124512	0.149414	0.990723	-0.980000	-3.920000	3.920000	373.00	-0.293827	-0.097712
0.77	6.75	7.75	4.50	7.25	0.75	4.00	0.00	1.25	0.00	0.50	0.75	1.00	1.25	0.00	0.00	0.25	-0.148438	0.078125	0.983398	-1.680000	1.960000	0.560000	345.00	-0.250081	-0.120817	7.50	9.00	6.25	8.75	0.50	3.75	0.00	1.00	0.00	0.25	0.00	0.00	0.50	0.25	0.00	0.25	-0.124512	0.149414	0.990723	-0.980000	-3.920000	3.920000	364.00	-0.292092	-0.098744
0.78	6.75	8.00	4.25	6.75	0.75	4.00	0.25	1.25	0.00	0.50	0.75	1.00	1.25	0.00	0.00	0.25	-0.143555	0.083984	0.988770	-1.680000	2.030000	0.560000	343.00	-0.247086	-0.117447	7.50	9.00	6.00	8.75	0.50	4.25	0.00	1.00	0.00	0.50	0.00	0.00	0.25	0.25	0.00	0.25	-0.120605	0.140625	1.003418	-0.910000	-3.640000	3.850000	367.00	-0.289437	-0.099387
0.79	6.50	8.00	4.25	6.75	0.75	4.00	0.25	1.25	0.00	0.50	1.00	1.00	1.25	0.00	0.00	0.25	-0.145996	0.086914	0.978516	-1.610000	2.030000	0.630000	343.00	-0.242711	-0.118996	7.50	9.00	6.00	8.75	0.50	4.25	0.00	1.00	0.00	0.50	0.00	0.00	0.50	0.25	0.00	0.25	-0.124023	0.150879	0.997070	-1.050000	-3.850000	3.920000	369.00	-0.286957	-0.101345
0.80	6.75	8.00	4.50	6.75	0.75	3.50	0.00	1.25	0.00	0.50	0.75	1.00	1.25	0.00	0.00	0.25	-0.143555	0.079590	0.978516	-1.610000	1.960000	0.560000	337.00	-0.252006	-0.117310	7.50	9.00	6.25	8.75	0.50	4.25	0.00	1.00	0.00	0.50	0.00	0.00	0.50	0.25	0.00	0.00	-0.121582	0.148438	1.000977	-0.980000	-3.920000	3.920000	370.00	-0.288994	-0.099315
0.81	6.50	7.75	4.50	6.75	1.00	3.75	0.25	1.25	0.00	0.50	0.75	1.00	1.25	0.00	0.00	0.25	-0.144531	0.081543	0.985352	-1.890000	1.960000	0.560000	341.00	-0.244891	-0.114723	7.50	9.00	6.25	8.75	0.50	3.75	0.00	1.00	0.00	0.25	0.00	0.00	0.50	0.25	0.00	0.25	-0.125977	0.153320	1.002441	-0.770000	-3.990000	3.920000	364.00	-0.292092	-0.098744
0.82	6.50	7.75	4.50	6.75	0.75	3.75	0.25	1.25	0.00	0.50	1.00	0.75	1.25	0.00	0.25	0.25	-0.145020	0.084473	0.987793	-1.750000	2.030000	0.560000	341.00	-0.241065	-0.114519	7.50	9.00	6.25	8.25	0.50	3.75	0.00	1.00	0.00	0.25	0.00	0.00	0.50	0.25	0.00	0.25	-0.119629	0.142578	0.998535	-0.910000	-3.850000	3.920000	359.00	-0.292156	-0.096982
0.83	6.75	7.75	4.50	6.75	0.75	3.50	0.25	1.25	0.00	0.50	0.75	0.75	1.25	0.00	0.25	0.25	-0.150391	0.084473	0.985352	-1.820000	1.960000	0.560000	339.00	-0.246151	-0.111786	7.50	9.00	6.25	8.25	0.50	3.75	0.00	0.75	0.00	0.25	0.00	0.00	0.50	0.25	0.00	0.00	-0.118652	0.143555	1.000000	-0.980000	-3.920000	3.920000	354.00	-0.297201	-0.093327
0.84	6.75	7.25	4.50	6.75	0.75	3.00	0.25	1.25	0.00	0.50	0.75	0.75	1.25	0.00	0.00	0.25	-0.147949	0.086914	0.988770	-1.820000	1.890000	0.560000	327.00	-0.250207	-0.108855	7.50	9.00	6.25	8.75	0.50	4.25	0.00	1.00	0.00	0.50	0.00	0.00	0.50	0.25	0.00	0.00	-0.122559	0.146484	1.000488	-1.050000	-3.990000	3.990000	370.00	-0.288994	-0.099315
0.85	6.50	7.75	4.50	6.75	0.75	3.00	0.25	1.25	0.00	0.50	0.75	0.75	1.25	0.00	0.00	0.50	-0.148438	0.084961	0.988770	-1.680000	1.890000	0.700000	330.00	-0.248921	-0.111919	7.50	9.00	6.25	8.75	0.50	4.25	0.00	1.00	0.00	0.50	0.00	0.00	0.25	0.25	0.00	0.00	-0.124023	0.146484	0.995117	-1.120000	-3.920000	3.990000	368.00	-0.291476	-0.097353
0.86	6.50	8.00	4.50	6.75	0.75	3.00	0.25	1.00	0.00	0.50	0.75	0.75	1.25	0.00	0.00	0.50	-0.150879	0.086426	0.984863	-1.890000	1.890000	0.630000	329.00	-0.252495	-0.109308	7.50	9.00	6.25	8.75	0.50	4.25	0.00	0.75	0.00	0.25	0.00	0.00	0.50	0.25	0.00	0.00	-0.119141	0.152832	0.998535	-0.910000	-3.990000	3.920000	364.00	-0.295089	-0.097590
0.87	6.50	7.75	4.50	6.75	0.75	3.00	0.25	1.25	0.00	0.50	1.00	1.00	1.50	0.00	0.25	0.25	-0.148926	0.086914	0.989746	-1.750000	1.890000	0.630000	338.00	-0.237395	-0.114362	7.50	9.00	6.00	8.75	0.50	4.25	0.00	1.00	0.00	0.25	0.00	0.00	0.50	0.25	0.00	0.00	-0.124512	0.151855	0.994141	-0.910000	-3.850000	3.920000	365.00	-0.292605	-0.101696
0.88	6.50	7.75	4.50	6.75	0.75	3.00	0.25	1.00	0.00	0.50	1.00	1.00	1.50	0.00	0.00	0.25	-0.144531	0.086426	0.984375	-1.610000	1.890000	0.700000	332.00	-0.244431	-0.111694	7.50	9.25	6.00	9.25	0.50	3.75	0.00	1.50	0.00	0.50	0.00	0.00	0.50	0.50	0.00	0.00	-0.125000	0.153809	1.000977	-0.910000	-3.920000	3.990000	379.00	-0.282944	-0.104283
0.89	6.25	7.75	4.50	6.75	0.75	3.50	0.25	1.25	0.00	0.50	0.75	0.75	1.50	0.00	0.00	0.50	-0.144531	0.082520	0.986328	-1.610000	1.890000	0.630000	335.00	-0.243903	-0.117952	7.50	9.25	6.25	9.25	0.50	3.75	0.00	1.50	0.00	0.50	0.00	0.00	0.50	0.25	0.00	0.00	-0.120117	0.148438	0.993652	-0.980000	-3.780000	3.920000	379.00	-0.286406	-0.104432
0.90	6.75	8.00	4.50	6.75	0.75	4.00	0.25	1.25	0.00	0.50	0.75	0.75	1.25	0.00	0.00	0.50	-0.146484	0.085938	0.982910	-1.680000	1.960000	0.630000	345.00	-0.248215	-0.115380	7.50	9.00	6.00	8.75	0.50	3.75	0.00	1.25	0.00	0.25	0.00	0.00	0.50	0.25	0.00	0.00	-0.119629	0.148438	0.999512	-1.120000	-3.990000	3.920000	364.00	-0.291847	-0.102127
0.91	6.75	8.00	4.50	6.75	0.75	4.00	0.00	1.00	0.00	0.50	1.00	0.75	1.00	0.00	0.00	0.50	-0.148926	0.083984	0.987793	-1.890000	1.960000	0.630000	338.00	-0.253132	-0.114190	7.50	9.25	6.25	8.75	0.50	4.25	0.00	1.50	0.00	0.25	0.00	0.00	0.50	0.25	0.00	0.00	-0.118164	0.150879	0.998535	-1.120000	-4.060000	3.920000	377.00	-0.287944	-0.106114
0.92	6.75	7.75	4.25	6.75	0.75	3.50	0.00	1.25	0.00	0.50	1.00	0.75	1.00	0.00	0.25	0.50	-0.147461	0.085938	0.987305	-1.960000	1.890000	0.770000	334.00	-0.246239	-0.115710	8.00	9.25	6.25	8.75	0.50	4.25	0.00	1.25	0.00	0.50	0.00	0.00	0.50	0.25	0.00	0.00	-0.119629	0.150879	0.999023	-1.190000	-4.130000	3.850000	381.00	-0.288595	-0.099768
0.93	6.75	7.75	4.25	6.75	0.75	2.75	0.00	1.25	0.00	0.50	0.75	0.75	1.00	0.00	0.00	0.25	-0.149902	0.083496	0.987305	-1.890000	1.890000	0.770000	321.00	-0.259226	-0.111536	7.50	9.00	6.00	8.75	0.25	3.75	0.00	1.00	0.00	0.50	0.00	0.00	0.50	0.25	0.00	0.00	-0.119629	0.152344	0.997559	-1.190000	-4.060000	3.850000	360.00	-0.292191	-0.099374
0.94	6.50	7.75	4.25	7.25	0.75	3.50	0.00	1.25	0.00	0.50	0.75	0.75	1.25	0.00	0.25	0.25	-0.143555	0.080078	0.991211	-1.890000	1.890000	0.630000	335.00	-0.248906	-0.120247	7.50	9.25	5.75	8.75	0.25	3.75	0.00	1.00	0.00	0.25	0.00	0.00	0.50	0.25	0.00	0.00	-0.121094	0.149902	1.000488	-1.190000	-4.060000	3.920000	357.00	-0.296660	-0.102202
0.95	7.00	7.75	4.50	6.75	0.75	3.50	0.00	1.25	0.00	0.50	0.75	0.75	1.25	0.00	0.25	0.25	-0.145996	0.077637	0.980957	-1.890000	1.820000	0.630000	338.00	-0.250622	-0.113897	7.50	9.25	6.00	9.25	0.50	3.75	0.00	1.00	0.00	0.25	0.00	0.00	0.50	0.25	0.00	0.00	-0.120605	0.149902	0.999023	-1.190000	-4.060000	3.920000	367.00	-0.295148	-0.101429
0.96	7.00	7.25	4.50	6.75	0.75	4.00	0.00	1.00	0.00	0.50	0.75	0.75	1.00	0.00	0.00	0.00	-0.146973	0.081543	0.988281	-2.030000	1.960000	0.770000	329.00	-0.259213	-0.110068	7.50	9.00	6.25	9.25	0.50	3.75	0.00	1.00	0.00	0.25	0.00	0.00	0.50	0.25	0.00	0.00	-0.123047	0.145996	0.999512	-1.260000	-3.920000	3.850000	368.00	-0.294247	-0.099735
0.97	6.75	7.75	4.25	6.75	0.75	4.00	0.00	1.25	0.00	0.50	0.75	0.75	1.00	0.00	0.00	0.25	-0.141602	0.084961	0.984375	-2.030000	2.030000	0.700000	333.00	-0.255233	-0.117557	7.50	9.00	6.00	8.75	0.50	3.75	0.00	1.00	0.00	0.25	0.00	0.00	0.50	0.25	0.00	0.00	-0.123535	0.151367	0.994629	-1.540000	-3.920000	3.920000	360.00	-0.294544	-0.099332
0.98	6.75	8.00	4.25	6.75	0.75	3.50	0.00	1.25	0.00	0.50	0.75	0.75	0.75	0.00	0.00	0.25	-0.146484	0.080078	0.985352	-2.100000	1.960000	0.630000	328.00	-0.260405	-0.113427	7.50	9.25	5.75	8.75	0.50	3.75	0.00	1.00	0.00	0.25	0.00	0.00	0.50	0.00	0.00	0.00	-0.125977	0.150391	0.999023	-1.680000	-3.920000	3.920000	358.00	-0.299326	-0.102581
0.99	6.75	8.00	4.25	6.75	1.00	3.50	0.00	1.25	0.00	0.50	0.50	0.50	1.00	0.00	0.00	0.25	-0.145508	0.080566	0.982910	-1.890000	1.960000	0.700000	328.00	-0.263761	-0.112849	7.50	9.25	6.00	8.75	0.50	4.00	0.00	1.00	0.00	0.25	0.00	0.00	0.50	0.25	0.00	0.00	-0.121582	0.155762	0.993652	-1.470000	-3.920000	3.920000	365.00	-0.294278	-0.100901
1.00	6.75	7.75	4.25	6.75	1.00	3.00	0.25	1.25	0.00	0.50	0.50	0.75	1.25	0.00	0.00	0.50	-0.145508	0.083008	0.986328	-1.890000	1.960000	0.700000	330.00	-0.252402	-0.110546	7.50	9.25	6.25	8.75	0.50	4.25	0.00	1.25	0.00	0.25	0.00	0.00	0.50	0.25	0.00	0.00	-0.122559	0.148926	1.002930	-1.470000	-3.990000	3.990000	373.00	-0.290510	-0.103454
1.01	6.50	8.25	4.50	6.75	0.75	2.75	0.25	1.00	0.00	0.50	0.50	0.75	1.25	0.00	0.00	0.25	-0.143066	0.083496	0.985840	-1.960000	1.890000	0.700000	325.00	-0.260207	-0.107590	7.50	9.25	6.25	8.75	0.50	4.25	0.00	1.50	0.00	0.25	0.00	0.00	0.50	0.25	0.00	0.00	-0.122559	0.148926	1.002930	-1.470000	-3.990000	3.990000	377.00	-0.287944	-0.106114
1.02	6.75	8.25	4.50	6.75	0.50	3.50	0.25	1.25	0.00	0.50	0.50	0.75	1.25	0.00	0.00	0.25	-0.145996	0.081055	0.992188	-1.820000	1.890000	0.770000	336.00	-0.257258	-0.113946	7.50	9.25	6.25	9.25	0.50	4.25	0.00	1.25	0.00	0.50	0.00	0.00	0.50	0.25	0.00	0.00	-0.116699	0.148438	0.998535	-1.470000	-3.920000	3.920000	381.00	-0.287155	-0.104009
1.03	6.50	8.00	4.50	6.75	0.50	3.50	0.25	1.25	0.00	0.50	0.50	0.50	1.25	0.00	0.00	0.50	-0.146484	0.090332	0.983398	-1.680000	1.820000	0.700000	330.00	-0.256267	-0.114638	7.50	9.25	6.25	9.25	0.50	4.25	0.00	1.50	0.00	0.50	0.00	0.00	0.50	0.25	0.00	0.00	-0.125488	0.151855	0.997559	-1.400000	-3.850000	3.850000	384.00	-0.284669	-0.106613
1.04	6.75	8.00	4.50	6.75	0.50	2.75	0.00	1.00	0.00	0.25	0.50	0.50	1.00	0.00	0.25	0.25	-0.141602	0.081543	0.986328	-2.030000	1.890000	0.630000	315.00	-0.270067	-0.108214	7.50	9.25	6.25	9.25	0.50	4.25	0.00	1.50	0.00	0.50	0.00	0.00	0.50	0.25	0.00	0.00	-0.121094	0.147461	0.993652	-1.680000	-3.780000	3.780000	384.00	-0.284669	-0.106613
1.05	6.75	8.00	4.50	6.75	0.75	3.50	0.00	1.00	0.00	0.25	0.50	0.75	1.00	0.00	0.00	0.25	-0.149902	0.079590	0.983398	-2.170000	2.100000	0.560000	325.00	-0.267713	-0.112272	7.50	9.25	6.25	9.25	0.50	4.25	0.00	1.25	0.00	0.50	0.00	0.00	0.50	0.00	0.00	0.00	-0.120605	0.150879	1.001953	-1.680000	-3.850000	3.780000	379.00	-0.290761	-0.105461
1.06	6.75	8.00	4.50	6.75	1.00	3.75	0.00	1.00	0.00	0.50	0.50	0.50	1.00	0.00	0.00	0.50	-0.144531	0.083008	0.986816	-1.750000	1.820000	0.560000	331.00	-0.263220	-0.110320	8.00	9.25	6.25	9.25	0.50	4.25	0.00	1.25	0.00	0.25	0.00	0.00	0.25	0.25	0.00	0.00	-0.117188	0.155273	0.997070	-1.610000	-3.850000	3.710000	381.00	-0.294278	-0.100542
1.07	6.75	8.00	4.25	6.75	0.75	3.50	0.25	1.00	0.00	0.50	0.50	0.50	0.75	0.00	0.00	0.50	-0.141602	0.083496	0.980957	-1.750000	1.960000	0.560000	325.00	-0.264088	-0.106028	7.50	9.50	6.25	8.75	0.50	4.25	0.00	1.00	0.00	0.25	0.00	0.00	0.50	0.25	0.00	0.00	-0.130371	0.148926	1.002930	-1.610000	-3.780000	3.920000	372.00	-0.293822	-0.101115
1.08	6.75	7.75	4.50	6.75	0.75	3.00	0.25	1.25	0.00	0.50	0.50	0.50	0.75	0.00	0.00	0.25	-0.143555	0.083496	0.992676	-1.820000	1.890000	0.630000	323.00	-0.264534	-0.103793	7.50	9.25	6.25	8.75	0.50	3.75	0.00	1.00	0.00	0.50	0.00	0.00	0.50	0.25	0.00	0.00	-0.120117	0.151855	1.003418	-1.610000	-3.710000	3.850000	367.00	-0.291578	-0.097347
1.09	6.50	8.00	4.50	6.75	0.75	2.75	0.00	1.25	0.00	0.50	0.50	0.75	1.00	0.00	0.00	0.25	-0.143555	0.083496	0.992676	-1.820000	1.890000	0.630000	321.00	-0.262865	-0.111890	7.50	9.25	6.25	8.75	0.50	4.25	0.00	1.00	0.00	0.50	0.00	0.00	0.50	0.25	0.00	0.00	-0.124512	0.149902	0.997070	-1.680000	-3.710000	3.780000	372.00	-0.289715	-0.099693
1.10	6.75	8.00	4.50	6.75	0.50	2.75	0.25	1.00	0.00	0.50	0.75	0.50	1.25	0.00	0.00	0.25	-0.138672	0.083496	0.988770	-1.960000	2.030000	0.630000	323.00	-0.261191	-0.105592	7.50	9.25	6.00	8.75	0.50	4.25	0.00	1.00	0.00	0.50	0.00	0.00	0.50	0.25	0.00	0.00	-0.124023	0.153320	1.000977	-1.750000	-3.850000	3.850000	370.00	-0.289883	-0.100998
1.11	6.75	8.00	4.25	6.75	0.75	4.00	0.25	1.00	0.00	0.50	0.75	0.50	1.00	0.00	0.00	0.25	-0.148926	0.079102	0.987793	-1.750000	1.960000	0.630000	333.00	-0.258642	-0.109944	7.50	9.25	6.00	8.75	0.50	4.25	0.00	1.00	0.00	0.50	0.00	0.00	0.50	0.25	0.00	0.00	-0.123047	0.148926	1.002930	-1.750000	-3.710000	3.920000	370.00	-0.289883	-0.100998
1.12	6.50	7.75	4.25	6.75	0.75	4.00	0.25	1.00	0.00	0.50	0.75	0.75	0.75	0.00	0.25	0.25	-0.141602	0.079102	0.983887	-1.680000	1.890000	0.630000	331.00	-0.250922	-0.110181	7.50	9.25	6.00	8.75	0.50	4.25	0.00	1.00	0.00	0.50	0.00	0.00	0.50	0.25	0.00	0.00	-0.118164	0.145996	0.997559	-1.820000	-3.710000	3.920000	370.00	-0.289883	-0.100998
1.13	6.50	7.75	4.25	6.75	0.75	4.00	0.25	1.25	0.00	0.50	1.00	0.50	0.75	0.00	0.00	0.25	-0.141602	0.079102	0.983887	-1.680000	1.890000	0.630000	332.00	-0.253113	-0.112026	7.50	9.25	5.75	8.75	0.50	4.25	0.00	1.00	0.00	0.25	0.00	0.00	0.50	0.25	0.00	0.00	-0.124023	0.149902	0.996582	-1.890000	-3.710000	3.780000	365.00	-0.293511	-0.103404
1.14	6.75	7.75	4.25	6.75	0.75	3.75	0.00	1.25	0.00	0.50	0.75	0.50	0.75	0.00	0.00	0.25	-0.145508	0.083008	0.989258	-1.890000	1.750000	0.560000	326.00	-0.262045	-0.112957	7.50	9.25	6.00	8.75	0.50	4.25	0.00	1.00	0.00	0.25	0.00	0.00	0.50	0.25	0.00	0.00	-0.117188	0.152832	0.995117	-2.100000	-3.780000	3.710000	367.00	-0.293316	-0.102065
1.15	6.75	7.75	4.25	6.75	0.75	3.50	0.00	1.25	0.00	0.25	0.75	0.75	0.75	0.00	0.00	0.25	-0.142090	0.082031	0.981445	-1.960000	1.820000	0.630000	324.00	-0.263066	-0.114385	7.50	9.25	6.25	8.75	0.50	4.25	0.00	1.00	0.00	0.50	0.00	0.00	0.50	0.25	0.00	0.00	-0.121582	0.150391	1.007812	-2.170000	-3.780000	3.850000	372.00	-0.289715	-0.099693
1.16	6.75	7.75	4.25	6.75	0.50	3.50	0.00	1.25	0.00	0.25	0.75	0.50	0.75	0.00	0.00	0.50	-0.146484	0.079590	0.984863	-1.750000	1.680000	0.700000	320.00	-0.265273	-0.115175	7.50	9.25	6.25	8.75	0.50	4.25	0.00	1.00	0.00	0.50	0.00	0.00	0.50	0.25	0.00	0.00	-0.118164	0.146973	0.999512	-2.170000	-3.710000	3.850000	372.00	-0.289715	-0.099693
1.17	7.00	7.75	4.25	6.75	0.50	3.00	0.00	1.25	0.00	0.50	0.50	0.50	0.75	0.00	0.00	0.25	-0.141602	0.085938	0.990723	-1.540000	1.680000	0.770000	316.00	-0.270468	-0.108886	7.50	9.50	6.00	8.75	0.50	4.25	0.00	1.00	0.00	0.25	0.00	0.00	0.50	0.25	0.00	0.00	-0.122070	0.142090	1.000488	-2.100000	-3.710000	3.850000	370.00	-0.294018	-0.102430
1.18	6.75	7.75	4.25	6.75	0.75	2.75	0.00	1.25	0.00	0.50	0.50	0.50	1.00	0.00	0.00	0.25	-0.146484	0.082520	0.982422	-1.610000	1.750000	0.770000	316.00	-0.266476	-0.110099	7.50	9.50	6.25	8.75	0.50	4.00	0.00	1.00	0.00	0.25	0.00	0.00	0.25	0.25	0.00	0.00	-0.115234	0.151367	1.004395	-2.170000	-3.780000	3.850000	368.00	-0.297293	-0.097996
1.19	6.75	7.75	4.50	6.75	0.75	3.00	0.25	1.25	0.00	0.50	1.00	0.50	1.00	0.00	0.00	0.25	-0.144531	0.082520	0.989258	-1.680000	1.680000	0.700000	329.00	-0.254779	-0.106136	7.50	9.25	6.25	8.75	0.50	4.25	0.00	1.00	0.00	0.50	0.00	0.00	0.25	0.25	0.00	0.00	-0.122070	0.152344	1.000977	-2.170000	-3.710000	3.990000	370.00	-0.292187	-0.097744
1.20	6.75	7.75	4.50	7.25	0.75	4.00	0.25	1.25	0.00	0.50	0.75	0.50	1.00	0.00	0.00	0.25	-0.144531	0.079590	0.987305	-1.820000	1.750000	0.700000	342.00	-0.255641	-0.112662	8.00	9.25	6.25	8.75	0.50	4.25	0.00	1.00	0.00	0.50	0.00	0.00	0.25	0.25	0.00	0.00	-0.123535	0.144043	1.000488	-1.890000	-3.570000	3.920000	375.00	-0.293591	-0.095137
1.21	6.75	7.75	4.50	7.25	0.50	4.00	0.00	1.25	0.00	0.50	0.75	0.75	1.00	0.00	0.00	0.25	-0.145508	0.086914	0.992676	-1.750000	1.610000	0.770000	338.00	-0.256754	-0.118915	8.00	9.25	6.75	9.25	0.50	4.25	0.00	1.00	0.00	0.25	0.00	0.00	0.25	0.25	0.00	0.00	-0.125000	0.154297	0.998047	-1.820000	-3.640000	3.920000	383.00	-0.296454	-0.095365
1.22	6.75	8.25	4.50	6.75	0.50	3.75	0.25	1.00	0.00	0.50	0.50	0.75	0.75	0.00	0.00	0.25	-0.145020	0.080078	0.983887	-1.820000	1.750000	0.700000	331.00	-0.264187	-0.108028	8.00	9.25	6.75	9.25	0.50	4.25	0.00	1.00	0.00	0.50	0.00	0.00	0.50	0.25	0.00	0.00	-0.117188	0.149902	0.993164	-1.960000	-3.710000	4.060000	387.00	-0.290757	-0.096274
1.23	7.00	8.25	4.50	6.75	0.50	4.00	0.00	1.25	0.00	0.50	0.50	0.75	0.75	0.00	0.00	0.25	-0.144531	0.081055	0.989746	-1.890000	1.820000	0.700000	336.00	-0.265308	-0.114301	8.00	9.25	6.25	8.75	0.50	4.25	0.00	1.00	0.00	0.50	0.00	0.00	0.50	0.25	0.00	0.00	-0.122559	0.146973	0.999023	-1.960000	-3.710000	3.990000	377.00	-0.291142	-0.097075
1.24	7.00	8.25	4.50	6.75	0.50	4.00	0.00	1.00	0.00	0.25	0.75	0.50	0.75	0.00	0.00	0.00	-0.145020	0.088379	0.989258	-1.610000	1.610000	0.840000	328.00	-0.273934	-0.110579	7.50	9.25	6.00	8.75	0.50	4.25	0.00	1.00	0.00	0.50	0.00	0.00	0.50	0.25	0.00	0.00	-0.122559	0.148438	1.005859	-1.890000	-3.640000	3.920000	370.00	-0.289883	-0.100998
1.25	7.00	8.25	4.50	7.25	0.50	4.00	0.00	1.00	0.00	0.25	0.50	0.50	0.75	0.00	0.00	0.25	-0.146973	0.083008	0.984375	-1.680000	1.680000	0.910000	332.00	-0.275356	-0.113028	7.50	9.00	6.25	8.75	0.50	4.25	0.00	1.00	0.00	0.50	0.25	0.00	0.50	0.25	0.00	0.00	-0.122559	0.151367	1.000488	-1.960000	-3.570000	3.990000	373.00	-0.285686	-0.099422
1.26	7.00	8.50	4.50	7.25	0.50	4.00	0.00	1.00	0.00	0.50	0.50	0.50	1.00	0.00	0.00	0.50	-0.144043	0.084473	0.987305	-1.680000	1.610000	0.910000	340.00	-0.267679	-0.114900	7.50	9.25	6.25	8.75	0.50	4.25	0.00	1.00	0.00	0.50	0.25	0.00	0.50	0.25	0.00	0.00	-0.121582	0.147949	0.997070	-1.960000	-3.640000	3.990000	375.00	-0.286421	-0.099797
1.27	7.00	8.75	4.50	6.75	0.50	4.00	0.00	0.75	0.00	0.25	0.50	0.50	0.75	0.00	0.00	0.25	-0.149414	0.086426	0.981934	-1.540000	1.610000	0.840000	328.00	-0.279769	-0.109045	7.50	9.25	6.25	9.25	0.50	4.25	0.00	1.00	0.00	0.50	0.00	0.00	0.50	0.25	0.00	0.00	-0.124512	0.149902	1.000977	-2.100000	-3.780000	4.060000	377.00	-0.289687	-0.101358
1.28	7.25	8.50	4.50	6.75	0.50	4.00	0.00	1.00	0.00	0.25	0.50	0.50	0.75	0.00	0.00	0.25	-0.143555	0.083008	0.984863	-1.680000	1.610000	0.910000	332.00	-0.276981	-0.110091	7.50	9.25	6.00	9.25	0.50	4.25	0.00	0.75	0.00	0.50	0.25	0.00	0.50	0.25	0.00	0.00	-0.121582	0.149902	0.999023	-2.380000	-3.710000	3.990000	374.00	-0.289130	-0.100051
1.29	7.25	8.50	4.50	7.25	0.50	3.75	0.00	1.00	0.00	0.25	0.50	0.25	0.75	0.00	0.00	0.50	-0.143555	0.083008	0.984863	-1.680000	1.610000	0.910000	333.00	-0.279204	-0.110023	7.50	9.25	6.25	8.75	0.50	4.25	0.00	1.00	0.00	0.50	0.25	0.00	0.25	0.25	0.00	0.00	-0.121582	0.149902	0.999023	-2.380000	-3.710000	3.990000	373.00	-0.288860	-0.097861
1.30	7.00	8.50	4.50	7.25	0.50	3.50	0.00	1.00	0.00	0.25	0.75	0.50	0.75	0.00	0.00	0.25	-0.145996	0.081055	0.988281	-1.680000	1.610000	0.910000	332.00	-0.274482	-0.110989	7.50	9.50	6.25	8.75	0.50	4.25	0.00	1.00	0.00	0.50	0.00	0.00	0.25	0.25	0.00	0.00	-0.118164	0.151367	0.996094	-2.240000	-3.640000	3.990000	372.00	-0.292891	-0.098131
1.31	7.50	8.75	4.50	7.25	0.50	3.00	0.00	1.00	0.00	0.25	0.50	0.50	0.75	0.00	0.00	0.25	-0.149902	0.082520	0.985352	-1.680000	1.680000	0.980000	331.00	-0.282678	-0.105732	7.50	9.50	6.25	8.75	0.50	4.25	0.00	0.75	0.00	0.50	0.00	0.00	0.50	0.25	0.00	0.00	-0.122559	0.144531	0.995605	-2.310000	-3.780000	4.060000	371.00	-0.293035	-0.097333
1.32	7.50	8.75	4.50	7.50	0.50	2.75	0.00	0.75	0.00	0.25	0.50	0.50	0.75	0.00	0.00	0.25	-0.144531	0.086426	0.983398	-1.540000	1.750000	0.980000	328.00	-0.286572	-0.102341	7.50	9.50	6.00	8.75	0.50	4.25	0.00	0.75	0.00	0.50	0.00	0.00	0.50	0.25	0.00	0.00	-0.126953	0.149902	1.005859	-2.030000	-3.780000	4.060000	368.00	-0.293226	-0.098626
1.33	7.50	9.00	4.50	7.50	0.50	3.00	0.00	0.75	0.00	0.00	0.50	0.50	0.75	0.00	0.00	0.00	-0.143066	0.082520	0.988281	-1.540000	1.750000	0.910000	329.00	-0.292658	-0.104441	7.50	9.50	6.00	8.75	0.50	4.25	0.00	0.75	0.00	0.50	0.00	0.00	0.25	0.25	0.00	0.00	-0.118652	0.146973	0.999512	-1.890000	-3.850000	3.990000	366.00	-0.295743	-0.096650
1.34	7.25	9.00	4.50	7.25	0.50	3.00	0.00	0.75	0.00	0.25	0.50	0.50	0.50	0.00	0.00	0.00	-0.146484	0.086426	0.984375	-1.400000	1.820000	0.980000	324.00	-0.290821	-0.101635	7.50	9.50	6.25	8.75	0.50	4.25	0.00	1.00	0.00	0.50	0.25	0.00	0.50	0.25	0.00	0.00	-0.125000	0.147949	0.998535	-1.820000	-3.920000	4.060000	377.00	-0.287149	-0.100167
1.35	8.00	9.00	4.50	7.25	0.50	3.00	0.00	0.75	0.00	0.25	0.50	0.50	0.75	0.00	0.00	0.00	-0.145996	0.084473	0.983398	-1.470000	1.680000	0.980000	333.00	-0.290466	-0.099306																									
1.36	8.00	9.00	4.50	7.25	0.75	2.75	0.00	0.75	0.00	0.00	0.50	0.50	0.75	0.00	0.00	0.00	-0.143066	0.084961	0.985352	-1.400000	1.540000	0.840000	331.00	-0.294066	-0.097955	7.50	9.50	6.25	8.75	0.50	4.25	0.00	1.00	0.00	0.50	0.25	0.00	0.25	0.25	0.00	0.00	-0.122070	0.147461	1.000488	-1.610000	-3.920000	3.990000	375.00	-0.289577	-0.098244
1.37	7.50	9.00	4.50	7.25	0.50	2.75	0.00	0.75	0.00	0.25	0.50	0.50	0.50	0.00	0.00	0.00	-0.143066	0.085449	0.981934	-1.330000	1.540000	0.840000	324.00	-0.292706	-0.098784	7.50	9.50	6.00	9.25	0.50	4.25	0.00	0.75	0.00	0.50	0.00	0.00	0.25	0.25	0.00	0.00	-0.129883	0.148926	0.992676	-1.540000	-4.130000	4.130000	371.00	-0.295633	-0.098382
1.38	7.50	9.00	4.50	7.25	0.50	2.75	0.00	1.00	0.00	0.25	0.50	0.50	0.75	0.00	0.00	0.00	-0.145508	0.083984	0.980469	-1.610000	1.750000	0.840000	330.00	-0.286955	-0.104069	7.50	9.50	6.00	8.75	0.50	4.00	0.00	0.75	0.00	0.50	0.00	0.00	0.25	0.25	0.00	0.00	-0.119629	0.153320	1.000488	-1.330000	-4.200000	4.130000	364.00	-0.296725	-0.095445
1.39	7.50	9.00	4.75	7.25	0.75	2.75	0.00	0.75	0.00	0.50	0.50	0.50	0.50	0.00	0.00	0.25	-0.142090	0.082520	0.987305	-1.540000	1.680000	0.840000	333.00	-0.284975	-0.095777	7.50	9.50	6.00	8.75	0.50	3.75	0.00	0.75	0.00	0.50	0.25	0.00	0.50	0.25	0.00	0.00	-0.121582	0.151855	1.000977	-1.400000	-4.130000	4.130000	366.00	-0.291747	-0.096369
1.40	7.50	9.00	4.50	7.50	0.50	2.50	0.00	0.75	0.00	0.25	0.50	0.50	0.50	0.00	0.00	0.25	-0.142090	0.084473	0.985840	-1.400000	1.680000	0.840000	325.00	-0.291233	-0.099249	7.50	9.50	6.00	8.75	0.25	3.75	0.00	0.75	0.00	0.50	0.00	0.00	0.25	0.25	0.00	0.00	-0.121582	0.143066	1.003906	-1.400000	-4.200000	4.060000	359.00	-0.298925	-0.095312
1.41	7.50	9.00	4.50	7.50	0.50	2.25	0.00	0.75	0.00	0.25	0.50	0.50	0.75	0.00	0.00	0.25	-0.143066	0.084473	0.990234	-1.680000	1.820000	0.840000	325.00	-0.289472	-0.100144	7.50	9.50	6.00	9.25	0.25	3.75	0.00	0.75	0.00	0.50	0.00	0.00	0.00	0.25	0.00	0.00	-0.120605	0.149414	0.997559	-1.260000	-4.270000	4.130000	362.00	-0.301348	-0.095090
1.42	7.50	9.00	4.50	7.50	0.50	3.50	0.00	0.75	0.00	0.25	0.50	0.50	0.50	0.00	0.00	0.25	-0.143555	0.083984	0.988281	-1.610000	1.890000	0.770000	335.00	-0.287110	-0.104400	7.50	9.25	6.25	9.25	0.25	4.25	0.00	1.00	0.00	0.50	0.25	0.00	0.25	0.25	0.00	0.00	-0.123047	0.153809	1.001953	-1.120000	-4.340000	4.340000	375.00	-0.289937	-0.100624
1.43	7.50	9.00	4.50	7.50	0.50	3.75	0.00	0.75	0.00	0.00	0.50	0.50	0.50	0.00	0.00	0.25	-0.142578	0.085449	0.987305	-1.540000	1.890000	0.840000	336.00	-0.289849	-0.106842	7.50	9.50	6.25	8.75	0.50	4.25	0.00	1.00	0.00	0.50	0.25	0.00	0.25	0.25	0.00	0.00	-0.120117	0.146973	1.000000	-0.980000	-4.340000	4.200000	375.00	-0.289577	-0.098244
1.44	8.00	9.00	4.50	7.25	0.50	3.00	0.00	0.75	0.00	0.25	0.50	0.25	0.50	0.00	0.00	0.00	-0.146973	0.083984	0.984863	-1.820000	1.960000	0.770000	329.00	-0.296919	-0.095671	7.50	9.50	6.25	9.25	0.50	4.25	0.00	1.00	0.00	0.50	0.00	0.00	0.25	0.25	0.00	0.00	-0.122559	0.148926	0.999512	-1.190000	-4.270000	4.060000	377.00	-0.292820	-0.099815
1.45	8.00	9.00	4.50	7.50	0.50	2.75	0.00	0.50	0.00	0.25	0.50	0.50	0.25	0.00	0.00	0.00	-0.146973	0.083984	0.984863	-1.820000	1.960000	0.770000	326.00	-0.300090	-0.091395	7.50	9.50	6.25	9.25	0.50	4.25	0.00	0.75	0.00	0.50	0.25	0.00	0.25	0.25	0.00	0.00	-0.119141	0.145508	0.998535	-1.260000	-4.200000	4.060000	376.00	-0.292111	-0.097221
1.46	7.50	9.00	4.50	7.50	0.50	3.75	0.00	0.75	0.00	0.00	0.25	0.25	0.50	0.00	0.00	0.00	-0.147461	0.083008	0.985840	-1.050000	1.750000	0.910000	329.00	-0.299718	-0.104612																									
1.47	7.50	8.75	4.50	7.75	0.50	4.00	0.00	0.75	0.00	0.25	0.25	0.25	0.50	0.00	0.00	0.00	-0.147461	0.083008	0.985840	-1.050000	1.750000	0.910000	335.00	-0.293958	-0.105180	7.50	9.50	6.00	9.25	0.50	4.25	0.00	0.75	0.00	0.50	0.00	0.00	0.25	0.25	0.00	0.00	-0.120117	0.150879	0.991699	-1.260000	-4.270000	4.130000	371.00	-0.295633	-0.098382
1.48	7.50	8.75	4.50	7.75	0.50	3.50	0.00	0.75	0.00	0.25	0.00	0.50	0.75	0.00	0.00	0.00	-0.141113	0.083496	0.983398	-1.050000	1.610000	0.980000	332.00	-0.293389	-0.106114	7.50	9.50	6.00	9.25	0.25	4.00	0.00	0.75	0.00	0.50	0.00	0.00	0.25	0.25	0.00	0.00	-0.118652	0.145996	0.994141	-1.330000	-4.270000	4.130000	366.00	-0.297774	-0.098292
1.49	7.50	8.75	4.75	7.75	0.50	3.00	0.00	0.50	0.00	0.25	0.00	0.25	0.75	0.00	0.00	0.00	-0.144531	0.082031	0.990234	-0.980000	1.540000	1.120000	323.00	-0.302111	-0.097524	7.50	9.50	6.00	9.25	0.25	4.00	0.00	0.75	0.00	0.50	0.25	0.00	0.25	0.25	0.00	0.00	-0.120605	0.149902	0.993652	-1.400000	-4.200000	4.130000	369.00	-0.294375	-0.098406
1.50	7.50	8.75	4.50	7.75	0.50	3.00	0.00	0.50	0.00	0.25	0.00	0.00	0.50	0.00	0.00	0.00	-0.144043	0.082031	0.986816	-1.120000	1.540000	0.980000	316.00	-0.309277	-0.095227	7.50	9.75	6.00	8.75	0.50	3.75	0.00	0.75	0.00	0.50	0.25	0.00	0.25	0.50	0.00	0.00	-0.120605	0.145020	0.997070	-1.610000	-4.060000	4.060000	368.00	-0.291223	-0.093334
1.51	7.50	8.75	4.50	7.50	0.50	3.00	0.00	0.75	0.00	0.00	0.00	0.25	0.50	0.00	0.00	0.00	-0.143555	0.084473	0.980469	-1.330000	1.680000	0.840000	318.00	-0.306373	-0.100163																									
1.52	7.50	9.00	4.50	7.25	0.50	2.50	0.00	0.50	0.00	0.00	0.25	0.00	0.50	0.00	0.00	0.00	-0.140625	0.083984	0.981445	-1.190000	1.680000	0.770000	309.00	-0.312979	-0.092125	7.50	10.00	6.00	8.75	0.50	3.75	0.00	0.75	0.00	0.50	0.00	0.00	0.25	0.25	0.00	0.00	-0.120117	0.147949	1.000977	-1.610000	-3.990000	4.060000	366.00	-0.299089	-0.095052
1.53	8.00	9.00	4.50	7.50	0.25	3.00	0.00	0.75	0.00	0.25	0.25	0.25	0.50	0.00	0.00	0.00	-0.142578	0.087891	0.980957	-1.470000	1.820000	0.630000	327.00	-0.301999	-0.097722	8.00	9.75	6.25	9.25	0.25	4.00	0.00	1.00	0.00	0.50	0.25	0.00	0.25	0.50	0.00	0.00	-0.116211	0.148438	0.992676	-1.890000	-3.780000	3.990000	384.00	-0.290045	-0.096225
1.54	8.00	8.75	4.50	7.50	0.50	3.50	0.00	0.75	0.00	0.00	0.50	0.25	0.50	0.00	0.00	0.00	-0.144043	0.083008	0.979492	-1.540000	1.680000	0.770000	332.00	-0.297770	-0.099999	8.00	9.75	6.00	9.25	0.25	4.25	0.00	0.75	0.00	0.50	0.00	0.00	0.25	0.00	0.00	0.00	-0.120117	0.150391	0.998047	-2.030000	-3.780000	3.850000	374.00	-0.302522	-0.098654
1.55	8.00	8.75	4.50	7.50	0.50	3.50	0.00	0.75	0.00	0.00	0.25	0.25	0.50	0.00	0.00	0.00	-0.145508	0.083984	0.983887	-1.540000	1.610000	0.840000	330.00	-0.301574	-0.099883	8.00	9.75	6.25	9.25	0.50	4.25	0.00	0.75	0.00	0.50	0.00	0.00	0.00	0.25	0.00	0.00	-0.119141	0.143066	0.996582	-2.170000	-3.570000	3.920000	379.00	-0.299896	-0.092992
1.56	8.00	8.75	4.50	7.50	0.50	3.00	0.00	0.75	0.00	0.00	0.00	0.00	0.50	0.00	0.00	0.00	-0.142090	0.082520	0.987793	-1.540000	1.680000	0.700000	320.00	-0.311701	-0.095596	8.00	9.75	6.25	9.25	0.50	4.25	0.00	1.00	0.00	0.50	0.00	0.00	0.00	0.25	0.00	0.00	-0.122070	0.143066	1.001465	-2.310000	-3.360000	3.850000	382.00	-0.297282	-0.095709
1.57	8.00	8.75	4.50	7.50	0.50	2.75	0.00	0.75	0.00	0.00	0.00	0.25	0.25	0.00	0.00	0.00	-0.142090	0.086426	0.988770	-1.680000	1.680000	0.700000	318.00	-0.312010	-0.093429	8.00	9.50	6.00	9.25	0.50	4.25	0.00	1.00	0.00	0.50	0.25	0.00	0.25	0.25	0.00	0.00	-0.118164	0.147461	1.000977	-2.450000	-3.360000	3.780000	382.00	-0.291122	-0.098594
1.58	8.00	8.75	4.50	7.50	0.50	2.75	0.00	0.75	0.00	0.00	0.00	0.25	0.00	0.00	0.00	0.00	-0.138672	0.086426	0.984863	-1.540000	1.540000	0.770000	316.00	-0.315050	-0.091103																									
1.59	7.50	8.75	4.75	7.75	0.50	2.75	0.00	0.75	0.00	0.00	0.00	0.25	0.50	0.00	0.00	0.25	-0.141113	0.081055	0.979004	-1.610000	1.680000	0.630000	321.00	-0.304502	-0.099123	8.00	9.75	6.00	9.25	0.50	4.25	0.00	0.75	0.00	0.50	0.25	0.00	0.25	0.25	0.00	0.00	-0.118164	0.147461	1.000977	-2.450000	-3.360000	3.780000	381.00	-0.294362	-0.096290
1.60	8.00	8.75	4.75	7.75	0.50	3.75	0.00	0.75	0.00	0.00	0.25	0.50	0.50	0.00	0.00	0.25	-0.146973	0.085449	0.980957	-1.540000	1.470000	0.420000	341.00	-0.294066	-0.102816	8.00	9.50	6.00	9.25	0.50	4.25	0.00	0.50	0.00	0.50	0.25	0.00	0.00	0.25	0.00	0.00	-0.122070	0.149902	0.995117	-2.240000	-3.150000	3.780000	373.00	-0.298779	-0.091189
1.61	7.50	8.75	4.75	7.75	0.25	4.00	0.00	0.75	0.00	0.00	0.50	0.50	0.50	0.00	0.00	0.25	-0.146973	0.085449	0.980957	-1.540000	1.470000	0.420000	338.00	-0.289068	-0.108337	7.50	9.75	6.00	8.75	0.25	4.00	0.00	0.75	0.00	0.50	0.25	0.00	0.00	0.25	0.00	0.00	-0.119629	0.145020	0.999023	-2.170000	-3.080000	3.920000	364.00	-0.297717	-0.095064
1.62	7.50	8.75	4.75	7.75	0.50	3.50	0.00	0.75	0.00	0.00	0.50	0.25	0.50	0.00	0.00	0.25	-0.145020	0.085449	0.986816	-1.680000	1.540000	0.420000	334.00	-0.293482	-0.103252	8.00	9.50	6.00	8.75	0.00	3.25	0.00	0.50	0.00	0.50	0.25	0.00	0.00	0.25	0.00	0.00	-0.123535	0.147949	0.999512	-2.170000	-3.010000	3.780000	353.00	-0.305535	-0.086338
1.63	8.00	9.00	4.50	7.75	0.50	4.00	0.00	0.75	0.00	0.00	0.25	0.25	0.50	0.00	0.00	0.25	-0.146484	0.084961	0.990234	-1.680000	1.470000	0.420000	340.00	-0.297570	-0.104526																									
1.64	8.00	9.00	4.50	7.75	0.50	4.00	0.00	0.75	0.00	0.00	0.50	0.50	0.75	0.00	0.00	0.00	-0.142090	0.089844	0.985352	-1.470000	1.470000	0.350000	346.00	-0.290098	-0.107241	8.00	9.50	6.25	8.75	0.00	3.75	0.00	0.75	0.00	0.50	0.00	0.00	0.00	0.25	0.00	0.00	-0.120605	0.142090	1.003418	-2.240000	-3.080000	3.780000	362.00	-0.303843	-0.090405
1.65	7.50	8.75	4.50	7.50	0.50	3.50	0.00	0.75	0.00	0.00	0.50	0.50	0.75	0.00	0.00	0.00	-0.148438	0.081543	0.989258	-1.400000	1.470000	0.420000	332.00	-0.289765	-0.106576	8.00	9.50	6.25	8.75	0.50	4.25	0.00	0.75	0.00	0.50	0.00	0.00	0.00	0.25	0.00	0.00	-0.122070	0.147461	0.999512	-2.240000	-3.010000	3.710000	372.00	-0.299401	-0.090798
1.66	8.00	8.75	4.50	8.00	0.50	3.00	0.00	0.75	0.00	0.00	0.50	0.50	0.75	0.00	0.00	0.00	-0.145020	0.082031	0.985840	-1.120000	1.470000	0.420000	336.00	-0.293365	-0.102850	8.00	9.50	6.25	8.75	0.50	4.25	0.00	0.75	0.00	0.50	0.25	0.00	0.25	0.25	0.00	0.00	-0.121094	0.151367	1.003418	-2.170000	-2.940000	3.780000	376.00	-0.293572	-0.092924
1.67	7.50	9.00	4.75	8.25	0.50	3.75	0.00	1.00	0.00	0.25	0.50	0.50	0.75	0.00	0.00	0.00	-0.149414	0.083496	0.981934	-0.770000	1.470000	0.350000	352.00	-0.283010	-0.110879	8.00	9.50	6.25	8.75	0.50	3.75	0.00	0.75	0.00	0.50	0.00	0.00	0.25	0.25	0.00	0.00	-0.117188	0.147461	1.000977	-2.030000	-2.870000	3.710000	369.00	-0.298852	-0.090346
1.68	8.00	9.00	4.75	8.00	0.50	3.75	0.00	1.00	0.00	0.25	0.50	0.50	0.75	0.00	0.00	0.00	-0.142090	0.087402	0.993164	-0.630000	1.330000	0.350000	354.00	-0.284586	-0.107138	7.50	9.25	5.75	8.25	0.50	4.00	0.00	0.75	0.00	0.50	0.00	0.00	0.00	0.50	0.00	0.25	-0.125488	0.147949	0.996582	-1.960000	-2.730000	3.640000	355.00	-0.292777	-0.091738
1.69	8.50	9.00	4.75	7.75	0.50	3.75	0.00	1.25	0.00	0.00	0.50	0.75	0.75	0.00	0.00	0.25	-0.142090	0.088379	0.986816	-0.280000	1.190000	0.420000	361.00	-0.281430	-0.109325																									
1.70	8.00	9.00	4.75	7.75	0.50	4.00	0.25	1.25	0.00	0.25	0.50	0.50	0.75	0.00	0.00	0.25	-0.145508	0.086426	0.987305	-0.350000	1.190000	0.420000	363.00	-0.275318	-0.107538	7.50	9.25	5.75	8.25	0.50	4.00	0.00	0.50	0.00	0.50	0.00	0.00	0.00	0.25	0.00	0.25	-0.122559	0.147461	0.999512	-2.030000	-2.800000	3.640000	350.00	-0.299496	-0.090260
1.71	8.00	9.00	4.75	8.50	0.50	4.00	0.25	1.25	0.00	0.25	0.50	0.50	1.00	0.00	0.00	0.25	-0.144043	0.091797	0.991211	-0.490000	1.330000	0.280000	372.00	-0.273183	-0.111809	7.50	9.25	6.00	8.25	0.50	3.75	0.00	0.50	0.00	0.50	0.25	0.00	0.00	0.25	0.00	0.00	-0.122559	0.146484	1.001953	-2.100000	-2.800000	3.640000	351.00	-0.299058	-0.087043
1.72	8.00	9.00	4.75	8.50	0.50	4.00	0.25	1.25	0.00	0.50	0.50	0.50	1.00	0.00	0.00	0.25	-0.140137	0.093262	0.986328	-0.420000	1.260000	0.490000	375.00	-0.269921	-0.110693	7.50	9.00	6.00	8.25	0.50	3.75	0.00	0.75	0.00	0.50	0.00	0.00	0.25	0.25	0.00	0.00	-0.122559	0.142578	0.999023	-2.170000	-2.870000	3.640000	352.00	-0.296442	-0.091503
1.73	7.50	9.00	4.75	8.00	0.50	4.00	0.00	1.25	0.00	0.50	0.50	0.50	1.25	0.00	0.00	0.00	-0.143555	0.091309	0.987793	-0.560000	1.260000	0.420000	362.00	-0.271059	-0.116617	7.50	9.00	5.50	8.25	0.50	4.25	0.00	0.50	0.00	0.50	0.25	0.00	0.25	0.25	0.00	0.25	-0.122070	0.141602	1.000488	-2.310000	-3.010000	3.640000	352.00	-0.291778	-0.094675
1.74	8.00	9.00	4.75	8.50	0.75	4.00	0.00	1.25	0.00	0.50	0.50	1.00	1.25	0.00	0.00	0.25	-0.141113	0.086914	0.987305	-1.050000	1.540000	0.280000	380.00	-0.263793	-0.116979	7.50	9.00	5.50	8.25	0.25	4.25	0.00	0.75	0.00	0.50	0.25	0.00	0.25	0.25	0.00	0.25	-0.122559	0.148438	0.997559	-2.170000	-3.080000	3.570000	353.00	-0.290211	-0.098708
1.75	7.50	9.00	4.75	8.50	0.50	4.00	0.00	1.25	0.00	0.50	0.50	1.00	1.25	0.00	0.00	0.25	-0.144531	0.087402	0.991211	-1.540000	1.820000	0.280000	373.00	-0.262954	-0.121043	7.50	9.00	6.00	8.25	0.25	3.75	0.00	0.75	0.00	0.50	0.25	0.00	0.00	0.25	0.00	0.25	-0.121582	0.145020	0.994629	-2.170000	-3.080000	3.570000	351.00	-0.294414	-0.091450
1.76	8.00	9.00	4.75	8.25	0.50	4.00	0.00	1.25	0.00	0.25	0.50	0.75	1.25	0.00	0.00	0.25	-0.145020	0.090332	0.988281	-1.540000	1.750000	0.280000	371.00	-0.270887	-0.117455	7.50	8.50	6.00	7.75	0.50	4.25	0.00	0.75	0.00	0.50	0.00	0.00	0.25	0.25	0.00	0.00	-0.120605	0.147949	0.999512	-2.170000	-3.220000	3.500000	348.00	-0.293053	-0.091271
1.77	8.00	9.00	4.75	8.25	0.75	4.00	0.00	1.50	0.00	0.50	0.75	0.75	1.25	0.00	0.00	0.25	-0.146484	0.088867	0.990723	-1.610000	1.750000	0.280000	381.00	-0.261263	-0.117639	7.50	8.50	5.75	8.25	0.25	4.00	0.00	0.50	0.00	0.50	0.00	0.00	0.25	0.25	0.00	0.00	-0.121582	0.141602	0.994629	-1.960000	-3.290000	3.640000	342.00	-0.298289	-0.091323
1.78	7.50	9.00	4.75	8.25	0.75	4.00	0.00	1.50	0.00	0.25	0.75	1.00	1.50	0.00	0.00	0.00	-0.145508	0.089844	0.990723	-1.820000	1.890000	0.280000	377.00	-0.259417	-0.123930	7.50	8.50	5.75	8.25	0.25	3.00	0.00	0.75	0.00	0.50	0.00	0.00	0.25	0.50	0.00	0.00	-0.123535	0.141602	0.999023	-1.820000	-3.360000	3.710000	337.00	-0.295538	-0.087508
1.79	8.00	8.75	4.75	8.25	0.75	4.00	0.25	1.25	0.00	0.50	0.50	1.00	1.50	0.00	0.00	0.25	-0.145508	0.090332	0.991699	-2.030000	2.030000	0.280000	381.00	-0.257381	-0.114513	7.50	8.50	5.50	7.75	0.25	2.75	0.00	0.75	0.00	0.50	0.00	0.00	0.50	0.50	0.00	0.00	-0.120605	0.145508	0.999512	-1.680000	-3.360000	3.710000	329.00	-0.294160	-0.087651
1.80	8.00	8.75	5.00	8.75	1.00	4.00	0.25	1.25	0.00	0.50	0.50	1.00	1.50	0.00	0.00	0.25	-0.139160	0.085449	0.991211	-2.240000	2.310000	0.350000	391.00	-0.256973	-0.113470	7.50	8.50	5.50	7.75	0.25	2.75	0.00	0.50	0.00	0.50	0.00	0.00	0.25	0.25	0.00	0.00	-0.124512	0.146484	0.998535	-1.750000	-3.570000	3.780000	322.00	-0.304360	-0.083659
1.81	7.50	8.75	4.75	8.75	0.75	4.00	0.00	1.50	0.00	0.50	0.50	0.75	1.50	0.00	0.00	0.25	-0.146484	0.086914	0.986816	-2.380000	2.310000	0.350000	379.00	-0.259786	-0.123437	7.50	8.50	5.75	7.75	0.25	4.25	0.00	0.50	0.00	0.50	0.25	0.00	0.25	0.25	0.00	0.25	-0.122070	0.145996	0.997070	-1.680000	-3.850000	3.920000	343.00	-0.291330	-0.091667
1.82	7.50	9.00	4.75	8.00	0.75	4.00	0.00	1.25	0.00	0.50	0.75	0.75	1.00	0.00	0.00	0.50	-0.145020	0.088867	0.992676	-2.380000	2.310000	0.350000	370.00	-0.261828	-0.116039	7.50	8.50	5.75	7.75	0.50	4.25	0.00	0.75	0.00	0.50	0.25	0.00	0.25	0.25	0.00	0.00	-0.122070	0.145996	0.997070	-1.680000	-3.850000	3.920000	348.00	-0.289684	-0.092766
1.83	7.50	9.00	4.75	8.25	0.75	4.00	0.25	1.25	0.00	0.50	0.75	0.75	1.00	0.00	0.00	0.25	-0.142090	0.086914	0.988770	-2.520000	2.520000	0.560000	375.00	-0.260892	-0.112773	7.50	8.50	5.50	7.75	0.50	3.75	0.00	0.75	0.00	0.50	0.00	0.00	0.25	0.25	0.00	0.25	-0.127930	0.145996	0.997559	-1.680000	-3.990000	3.850000	339.00	-0.293128	-0.092143
1.84	7.50	8.75	4.75	8.25	0.75	4.00	0.00	1.25	0.00	0.50	0.50	1.00	1.00	0.00	0.00	0.25	-0.145996	0.094727	0.987793	-2.450000	2.590000	0.490000	369.00	-0.263310	-0.116999	7.50	8.50	5.50	8.25	0.50	3.75	0.00	0.75	0.00	0.50	0.00	0.00	0.25	0.25	0.00	0.25	-0.126953	0.142578	1.000000	-1.610000	-4.130000	3.850000	344.00	-0.293047	-0.094078
1.85	7.50	8.75	4.75	8.00	0.75	3.75	0.25	1.25	0.00	0.50	0.75	1.00	1.00	0.00	0.00	0.50	-0.143066	0.086914	0.983398	-2.450000	2.590000	0.560000	371.00	-0.255409	-0.112502	7.50	8.50	5.00	8.25	0.25	3.25	0.00	0.75	0.00	0.50	0.25	0.00	0.25	0.25	0.00	0.00	-0.121094	0.144043	0.997559	-1.540000	-4.200000	3.990000	333.00	-0.295562	-0.094724
1.86	7.50	8.75	4.75	8.00	0.50	3.75	0.25	1.25	0.00	0.50	0.75	0.50	1.25	0.00	0.00	0.25	-0.149414	0.088867	0.991699	-2.730000	2.590000	0.560000	365.00	-0.262243	-0.112499	7.50	8.50	5.00	8.25	0.25	3.00	0.00	0.50	0.00	0.50	0.25	0.00	0.25	0.25	0.00	0.00	-0.122559	0.143066	0.995605	-1.400000	-4.270000	4.060000	327.00	-0.299666	-0.090207
1.87	7.25	8.75	4.50	7.75	0.50	3.75	0.00	1.25	0.00	0.50	0.75	0.75	1.25	0.00	0.00	0.25	-0.142090	0.087891	0.991699	-2.730000	2.590000	0.490000	356.00	-0.261261	-0.119341	7.50	8.50	5.50	7.75	0.50	3.00	0.00	0.75	0.00	0.50	0.25	0.00	0.25	0.25	0.00	0.00	-0.120605	0.144531	0.996582	-1.190000	-4.620000	4.060000	333.00	-0.295007	-0.087430
1.88	7.25	8.50	4.75	7.50	0.50	3.50	0.25	1.25	0.00	0.50	0.75	0.75	1.00	0.00	0.00	0.25	-0.145996	0.085449	0.986816	-2.450000	2.730000	0.560000	353.00	-0.260007	-0.110214	7.50	8.50	5.50	8.25	0.25	3.00	0.00	0.75	0.00	0.50	0.00	0.00	0.00	0.25	0.00	0.00	-0.124512	0.145996	0.994141	-1.050000	-4.830000	4.060000	331.00	-0.302748	-0.088182
1.89	7.00	8.50	4.75	7.50	0.50	3.50	0.00	1.25	0.00	0.50	0.75	0.50	1.00	0.00	0.00	0.25	-0.143066	0.085449	0.981934	-2.590000	2.730000	0.630000	345.00	-0.265747	-0.113988	7.50	8.50	5.50	8.25	0.00	3.00	0.00	0.75	0.00	0.50	0.00	0.00	0.00	0.25	0.00	0.00	-0.125000	0.145508	1.004395	-0.910000	-4.900000	4.130000	328.00	-0.304105	-0.089325
1.90	7.25	8.50	4.75	7.25	0.50	4.00	0.00	1.25	0.00	0.50	0.75	0.75	1.00	0.00	0.00	0.25	-0.144043	0.081055	0.988770	-2.590000	2.660000	0.630000	352.00	-0.261657	-0.115190	7.50	9.00	5.00	8.25	0.50	2.75	0.00	0.75	0.00	0.50	0.25	0.00	0.00	0.25	0.00	0.25	-0.123535	0.145996	1.001465	-0.560000	-4.970000	4.270000	334.00	-0.298268	-0.090420
1.91	7.25	8.50	4.75	7.25	0.75	4.00	0.25	1.25	0.00	0.25	0.50	1.00	0.75	0.00	0.00	0.50	-0.140137	0.086914	0.986328	-2.730000	2.660000	0.630000	355.00	-0.261017	-0.111598	7.50	9.00	5.75	8.25	0.50	2.50	0.00	0.50	0.00	0.50	0.25	0.00	0.25	0.25	0.00	0.00	-0.117676	0.143555	1.000977	-0.420000	-4.970000	4.340000	336.00	-0.301232	-0.083232
1.92	7.25	8.50	4.75	7.25	0.50	3.75	0.25	1.25	0.00	0.00	0.75	0.75	0.75	0.00	0.00	0.25	-0.147949	0.084473	0.981934	-2.940000	2.870000	0.420000	346.00	-0.268380	-0.110919	7.50	9.00	6.00	8.25	0.25	2.50	0.00	0.75	0.00	0.50	0.25	0.00	0.25	0.25	0.00	0.00	-0.121582	0.146484	1.001465	-0.210000	-4.900000	4.270000	340.00	-0.299307	-0.086163
1.93	7.25	8.50	4.50	7.25	0.50	3.50	0.25	1.00	0.00	0.00	0.50	0.75	1.00	0.00	0.00	0.50	-0.146484	0.084961	0.986328	-2.800000	2.870000	0.420000	339.00	-0.270481	-0.111132	7.50	9.00	5.75	8.75	0.50	4.25	0.00	0.75	0.00	0.50	0.25	0.00	0.50	0.25	0.00	0.00	-0.129395	0.144531	0.994141	-0.070000	-5.040000	4.340000	364.00	-0.288580	-0.099277
1.94	7.00	8.50	4.50	7.25	0.75	3.00	0.25	1.00	0.00	0.25	0.50	0.75	0.75	0.00	0.00	0.50	-0.145020	0.082520	0.991699	-2.590000	2.800000	0.560000	334.00	-0.269198	-0.105648	8.00	9.25	6.00	8.75	0.50	4.25	0.00	0.75	0.00	0.50	0.00	0.00	0.50	0.25	0.00	0.00	-0.125977	0.150391	1.000977	-0.000000	-5.040000	4.340000	371.00	-0.293931	-0.095596
1.95	7.25	8.50	4.50	7.25	0.75	2.75	0.00	1.00	0.00	0.50	0.50	0.50	0.75	0.00	0.00	0.25	-0.148438	0.083008	0.989746	-2.520000	2.800000	0.630000	329.00	-0.276961	-0.103126	8.00	9.25	6.00	8.25	0.25	4.25	0.00	0.75	0.00	0.50	0.25	0.00	0.25	0.25	0.00	0.00	-0.122070	0.139160	0.999512	0.420000	-5.180000	4.410000	364.00	-0.294301	-0.093024
1.96	7.25	8.25	4.50	7.25	0.75	2.75	0.00	1.00	0.00	0.50	0.50	0.50	0.75	0.00	0.00	0.25	-0.145020	0.082031	0.993164	-2.590000	2.940000	0.630000	327.00	-0.276062	-0.102720	8.00	9.50	6.25	8.75	0.25	4.25	0.00	0.75	0.00	0.50	0.25	0.00	0.25	0.25	0.00	0.00	-0.124023	0.150879	0.995605	0.560000	-5.320000	4.340000	374.00	-0.294703	-0.093961
1.97	7.00	8.25	4.50	7.25	0.75	2.75	0.00	0.75	0.00	0.25	0.50	0.50	0.75	0.00	0.00	0.00	-0.145020	0.082031	0.993164	-2.590000	2.940000	0.630000	318.00	-0.284369	-0.101552	8.00	9.50	6.25	8.75	0.25	4.25	0.00	0.75	0.00	0.50	0.25	0.00	0.25	0.25	0.00	0.00	-0.117188	0.147949	0.995117	0.560000	-5.320000	4.340000	374.00	-0.294703	-0.093961
1.98	7.00	8.25	4.50	7.25	0.50	2.75	0.00	0.75	0.00	0.25	0.50	0.75	0.75	0.00	0.00	0.00	-0.142578	0.079590	0.980469	-2.590000	2.800000	0.700000	318.00	-0.281876	-0.104313	7.50	9.50	6.00	8.75	0.25	4.25	0.00	1.00	0.00	0.50	0.25	0.00	0.50	0.25	0.00	0.00	-0.125000	0.146973	1.001465	0.420000	-5.250000	4.340000	372.00	-0.288391	-0.102559
1.99	6.75	8.25	4.50	7.25	0.50	2.75	0.00	0.75	0.00	0.25	0.50	0.50	0.75	0.00	0.00	0.00	-0.148438	0.084961	0.989258	-2.450000	2.800000	0.770000	313.00	-0.284746	-0.104451	8.00	9.50	6.25	9.25	0.50	4.25	0.00	1.00	0.00	0.50	0.25	0.00	0.25	0.25	0.00	0.00	-0.121094	0.145020	0.998535	0.420000	-5.320000	4.480000	385.00	-0.290952	-0.097347
2.00	7.00	8.25	4.50	6.75	0.50	2.75	0.00	1.00	0.00	0.50	0.50	0.50	0.75	0.00	0.00	0.00	-0.142090	0.079102	0.984863	-2.660000	2.730000	0.770000	316.00	-0.278640	-0.102836	8.25	9.75	6.25	9.25	0.25	4.25	0.00	1.00	0.00	0.50	0.25	0.00	0.25	0.25	0.00	0.00	-0.123535	0.151367	1.002441	0.770000	-5.320000	4.550000	387.00	-0.293401	-0.097490
2.01	7.00	8.25	4.50	6.75	0.50	2.75	0.00	0.75	0.00	0.50	0.50	0.50	0.50	0.00	0.00	0.00	-0.144531	0.074707	0.988281	-2.520000	2.660000	0.770000	311.00	-0.284498	-0.097297	8.25	9.75	6.25	9.25	0.25	4.25	0.00	1.00	0.00	0.50	0.25	0.00	0.25	0.25	0.00	0.00	-0.120117	0.149414	1.002930	1.190000	-5.320000	4.620000	387.00	-0.293401	-0.097490
2.02	7.00	8.25	4.50	7.25	0.50	2.50	0.00	1.00	0.00	0.50	0.50	0.50	0.75	0.00	0.00	0.25	-0.150879	0.080566	0.988281	-2.730000	2.590000	0.700000	320.00	-0.277267	-0.104250	8.00	9.75	6.25	9.25	0.25	4.25	0.00	1.00	0.00	0.50	0.25	0.00	0.25	0.25	0.00	0.00	-0.116211	0.155762	0.994629	1.120000	-5.110000	4.760000	384.00	-0.292723	-0.098761
2.03	7.00	8.00	4.50	7.25	0.50	2.75	0.00	0.75	0.00	0.25	0.50	0.50	0.50	0.00	0.00	0.25	-0.145996	0.085449	0.989746	-2.660000	2.520000	0.700000	312.00	-0.285074	-0.100974	8.00	9.75	6.25	9.25	0.50	4.25	0.00	1.00	0.00	0.50	0.00	0.00	0.25	0.50	0.00	0.25	-0.119141	0.147461	0.994141	0.910000	-4.970000	4.550000	387.00	-0.289183	-0.096917
2.04	7.00	8.00	4.50	7.25	0.50	2.75	0.00	0.75	0.00	0.00	0.50	0.50	0.50	0.00	0.00	0.25	-0.147949	0.082520	0.983398	-2.590000	2.380000	0.700000	310.00	-0.289107	-0.102239	8.00	10.00	6.25	9.75	0.50	4.25	0.00	1.25	0.00	0.50	0.25	0.00	0.50	0.25	0.00	0.00	-0.113770	0.146973	1.002441	0.560000	-4.830000	4.550000	399.00	-0.287510	-0.104058
2.05	7.00	8.25	4.25	7.25	0.50	2.75	0.00	0.75	0.00	0.25	0.50	0.50	0.50	0.00	0.00	0.25	-0.145508	0.080566	0.984863	-2.660000	2.520000	0.630000	312.00	-0.286123	-0.102971	8.00	10.00	6.25	9.75	0.50	4.25	0.00	1.25	0.00	0.50	0.25	0.00	0.50	0.25	0.00	0.00	-0.116211	0.151367	0.994629	0.070000	-4.760000	4.620000	399.00	-0.287510	-0.104058
2.06	6.75	8.25	4.25	7.25	0.50	2.50	0.00	0.75	0.00	0.25	0.50	0.50	0.50	0.00	0.00	0.00	-0.142578	0.088867	0.984863	-2.660000	2.450000	0.700000	306.00	-0.288947	-0.102369	8.00	10.00	6.75	9.25	0.25	4.25	0.00	1.00	0.00	0.50	0.25	0.00	0.50	0.50	0.00	0.00	-0.123535	0.152344	0.995117	-0.210000	-4.550000	4.480000	395.00	-0.287217	-0.097157
2.07	6.75	8.25	4.75	7.25	0.50	2.50	0.00	0.75	0.00	0.25	0.50	0.50	0.75	0.00	0.00	0.00	-0.145996	0.081543	0.985352	-2.520000	2.450000	0.700000	313.00	-0.285642	-0.101531	8.25	10.00	6.75	9.25	0.25	4.25	0.00	1.00	0.00	0.50	0.25	0.00	0.50	0.50	0.00	0.25	-0.114258	0.151367	0.993652	-0.630000	-4.410000	4.410000	399.00	-0.285878	-0.096612
2.08	7.25	8.25	4.75	7.25	0.50	2.25	0.00	0.50	0.00	0.00	0.25	0.25	0.75	0.00	0.00	0.00	-0.145508	0.085938	0.979980	-2.240000	2.310000	0.840000	304.00	-0.303740	-0.093187	8.25	10.50	6.75	9.75	0.50	4.25	0.00	1.00	0.00	0.50	0.25	0.00	0.50	0.25	0.00	0.25	-0.125000	0.145996	1.005859	-0.210000	-4.620000	4.480000	409.00	-0.289596	-0.099242
2.09	7.25	8.25	4.50	7.25	0.50	2.00	0.00	0.50	0.00	0.00	0.25	0.50	0.50	0.00	0.00	0.00	-0.145020	0.083496	0.985840	-2.170000	2.310000	0.910000	300.00	-0.304340	-0.092427	8.25	10.50	6.25	9.75	0.50	4.25	0.00	1.00	0.00	0.50	0.25	0.00	0.25	0.25	0.00	0.00	-0.120605	0.145020	1.008301	2.940000	-6.440000	4.970000	400.00	-0.294218	-0.099173
2.10	7.00	8.25	4.50	6.75	0.50	2.00	0.00	0.50	0.00	0.25	0.25	0.50	0.75	0.00	0.00	0.00	-0.148926	0.078125	0.984375	-2.380000	2.590000	0.840000	297.00	-0.296286	-0.093021	8.25	10.50	6.25	9.75	0.25	4.25	0.00	1.00	0.00	0.50	0.25	0.00	0.25	0.25	0.00	0.00	-0.120605	0.145020	1.008301	2.940000	-6.440000	4.970000	398.00	-0.295284	-0.100186
2.11	7.00	8.50	4.50	6.75	0.50	2.00	0.00	0.50	0.00	0.25	0.00	0.25	0.50	0.00	0.00	0.00	-0.144531	0.088379	0.984375	-2.520000	2.590000	0.770000	292.00	-0.308789	-0.089171	8.25	10.50	6.25	9.75	0.50	4.25	0.00	1.25	0.00	0.50	0.50	0.00	0.50	0.25	0.00	0.00	-0.120605	0.152344	0.996582	4.130000	-7.070000	5.040000	408.00	-0.286503	-0.103534
2.12	7.00	8.50	4.50	7.25	0.50	2.00	0.00	0.50	0.00	0.00	0.00	0.00	0.50	0.00	0.00	0.00	-0.145508	0.078125	0.984375	-2.520000	2.520000	0.700000	292.00	-0.317171	-0.091042	8.25	10.75	6.75	9.75	0.25	4.25	0.00	1.50	0.00	0.50	0.50	0.00	0.50	0.25	0.00	0.00	-0.118164	0.154785	0.994629	3.710000	-6.930000	5.110000	416.00	-0.285586	-0.104887
2.13	7.00	8.25	4.50	6.75	0.50	1.75	0.00	0.50	0.00	0.00	0.25	0.25	0.50	0.00	0.00	0.00	-0.145996	0.078613	0.984375	-2.520000	2.520000	0.770000	288.00	-0.309445	-0.088507	8.50	10.75	6.75	10.50	0.50	4.25	0.00	1.25	0.00	0.25	0.25	0.00	0.25	0.25	0.00	0.00	-0.118164	0.153809	1.012207	2.940000	-6.440000	4.830000	419.00	-0.295677	-0.101652
2.14	7.00	8.25	4.50	6.75	0.25	2.00	0.00	0.50	0.00	0.00	0.25	0.25	0.25	0.00	0.00	0.00	-0.146973	0.081055	0.982422	-2.520000	2.380000	0.770000	286.00	-0.313038	-0.088825	8.50	11.00	6.75	10.50	0.50	4.25	0.00	1.25	0.00	0.25	0.25	0.00	0.25	0.25	0.00	0.25	-0.121582	0.163086	1.013184	4.410000	-7.420000	5.040000	422.00	-0.294338	-0.102600
2.15	6.75	8.25	4.25	7.25	0.25	2.00	0.00	0.50	0.00	0.00	0.25	0.25	0.25	0.00	0.00	0.00	-0.143066	0.082031	0.985840	-2.520000	2.380000	0.770000	286.00	-0.312267	-0.094445	8.50	11.50	6.75	10.50	0.50	4.25	0.00	1.25	0.00	0.50	0.25	0.00	0.25	0.00	0.00	0.00	-0.122559	0.155273	1.008789	6.510000	-8.610000	5.320000	425.00	-0.297727	-0.102966
2.16	7.00	8.25	4.50	7.25	0.25	2.25	0.00	0.50	0.00	0.25	0.25	0.00	0.25	0.00	0.00	0.00	-0.145020	0.083496	0.983887	-2.520000	2.100000	0.770000	293.00	-0.311047	-0.089776	8.50	11.50	7.50	10.50	0.50	4.25	0.00	1.00	0.00	0.50	0.00	0.00	0.25	0.25	0.00	0.25	-0.114258	0.165527	1.000488	7.280000	-9.170000	5.250000	430.00	-0.297237	-0.096476
2.17	7.00	8.25	4.50	6.75	0.50	2.00	0.00	0.50	0.00	0.25	0.25	0.00	0.25	0.00	0.00	0.00	-0.146973	0.085938	0.982422	-2.520000	2.030000	0.770000	288.00	-0.311208	-0.084522	8.50	11.00	7.50	10.50	0.50	4.25	0.00	0.75	0.00	0.25	0.25	0.00	0.25	0.25	0.00	0.00	-0.112305	0.164551	0.997070	6.930000	-8.750000	5.320000	421.00	-0.300407	-0.093716
2.18	7.25	8.25	4.25	6.75	0.50	1.75	0.00	0.50	0.00	0.00	0.25	0.00	0.25	0.00	0.00	0.00	-0.147949	0.083008	0.985840	-2.450000	1.960000	0.840000	283.00	-0.318428	-0.084064	8.75	11.75	7.75	10.50	0.25	4.50	0.00	1.00	0.00	0.25	0.25	0.00	0.25	0.25	0.00	0.00	-0.115234	0.164551	1.009766	6.440000	-8.750000	5.180000	436.00	-0.300311	-0.096886
2.19	7.00	8.50	4.25	6.75	0.50	1.75	0.00	0.50	0.00	0.00	0.00	0.00	0.00	0.00	0.00	0.00	-0.149902	0.079102	0.985352	-2.520000	1.960000	0.840000	278.00	-0.326626	-0.083346	8.50	11.75	7.50	10.50	0.25	4.50	0.00	1.00	0.00	0.50	0.00	0.00	0.25	0.25	0.00	0.25	-0.114746	0.158203	1.015137	7.910000	-9.800000	5.110000	432.00	-0.297983	-0.098747
2.20	7.50	8.25	4.25	6.75	0.50	1.75	0.00	0.25	0.00	0.00	0.00	0.25	0.00	0.00	0.00	0.00	-0.148438	0.081543	0.988281	-2.520000	1.820000	0.770000	280.00	-0.326528	-0.077470	8.50	11.75	7.50	10.50	0.25	4.25	0.00	1.00	0.00	0.25	0.00	0.00	0.25	0.00	0.00	0.25	-0.113281	0.163574	1.007812	9.940000	-11.200000	5.250000	426.00	-0.305103	-0.099906
2.21	7.50	8.25	4.00	6.75	0.50	1.50	0.00	0.50	0.00	0.00	0.00	0.25	0.00	0.00	0.00	0.00	-0.147949	0.082520	0.991699	-2.380000	1.960000	0.910000	278.00	-0.324722	-0.081180	8.50	12.50	7.00	10.75	0.50	4.50	0.00	0.75	0.00	0.25	0.00	0.00	0.25	0.25	0.00	0.00	-0.103516	0.157715	0.994629	10.850000	-11.620000	5.180000	432.00	-0.306214	-0.099674
2.22	7.50	8.25	4.00	6.75	0.50	1.75	0.00	0.50	0.00	0.00	0.00	0.00	0.25	0.00	0.00	0.00	-0.144043	0.074707	0.982910	-2.520000	2.310000	0.770000	280.00	-0.324276	-0.083742	8.50	12.50	7.75	10.75	0.50	4.50	0.00	0.75	0.00	0.25	0.00	0.00	0.00	0.25	0.00	0.00	-0.104980	0.172852	0.993652	10.570000	-11.480000	5.040000	437.00	-0.307669	-0.094712
2.23	7.50	8.25	4.00	6.75	0.50	1.50	0.00	0.50	0.00	0.00	0.25	0.00	0.25	0.00	0.00	0.00	-0.151367	0.078613	0.983887	-2.310000	2.310000	0.770000	280.00	-0.321103	-0.082338	8.50	12.50	7.50	10.75	0.50	4.25	0.00	0.75	0.00	0.25	0.00	0.00	0.00	0.25	0.00	0.00	-0.102539	0.178711	0.984375	9.590000	-10.780000	4.900000	432.00	-0.308813	-0.094774
2.24	7.25	8.00	4.00	6.75	0.50	1.50	0.00	0.50	0.00	0.00	0.25	0.00	0.25	0.00	0.00	0.00	-0.152344	0.079102	0.983887	-2.170000	2.170000	0.700000	276.00	-0.319668	-0.083339	8.50	12.50	7.00	10.75	0.50	4.25	0.00	0.75	0.00	0.00	0.00	0.00	0.25	0.25	0.00	0.00	-0.104492	0.176758	0.985840	8.330000	-9.730000	4.900000	427.00	-0.310159	-0.099575
2.25	7.00	8.00	4.00	6.50	0.50	1.50	0.00	0.50	0.00	0.00	0.25	0.00	0.00	0.00	0.00	0.00	-0.145996	0.080566	0.984863	-2.380000	2.100000	0.770000	269.00	-0.322856	-0.080905	8.50	12.50	7.00	11.25	0.25	4.25	0.00	0.50	0.00	0.00	0.00	0.00	0.00	0.00	0.00	0.00	-0.104004	0.181152	0.992676	7.280000	-9.030000	4.830000	422.00	-0.319059	-0.099186
2.26	7.25	8.00	4.25	6.75	0.50	1.75	0.00	0.50	0.00	0.00	0.00	0.00	0.00	0.00	0.00	0.00	-0.141602	0.074219	0.982910	-2.170000	2.030000	0.770000	276.00	-0.325912	-0.080440	8.50	12.50	7.00	11.25	0.25	4.25	0.00	0.50	0.00	0.25	0.00	0.00	0.00	0.00	0.00	0.00	-0.105957	0.178223	0.989746	6.440000	-8.470000	4.760000	424.00	-0.315921	-0.098272
2.27	7.25	8.25	4.25	6.75	0.50	1.75	0.00	0.50	0.00	0.00	0.00	0.00	0.50	0.00	0.00	0.00	-0.146973	0.081055	0.989258	-2.240000	2.100000	0.700000	283.00	-0.319598	-0.086459	8.50	12.25	7.00	11.25	0.00	4.25	0.00	0.50	0.00	0.25	0.00	0.00	0.00	0.00	0.00	0.00	-0.100586	0.178223	0.984863	5.320000	-7.630000	4.690000	419.00	-0.316557	-0.098887
2.28	7.25	8.25	4.25	6.75	0.50	1.75	0.00	0.50	0.00	0.00	0.25	0.25	0.25	0.00	0.00	0.00	-0.146484	0.090332	0.985840	-2.450000	2.240000	0.770000	285.00	-0.313963	-0.085853	8.50	12.75	7.00	11.25	0.00	4.25	0.00	0.50	0.00	0.00	0.00	0.00	0.00	0.00	0.00	0.00	-0.099121	0.190918	0.985352	3.920000	-6.650000	4.830000	421.00	-0.320701	-0.100478
2.29	7.00	8.25	4.25	6.75	0.50	2.00	0.00	0.25	0.00	0.00	0.00	0.25	0.00	0.00	0.00	0.00	-0.145508	0.088867	0.982422	-2.800000	2.380000	0.770000	278.00	-0.323655	-0.082399	8.25	12.75	6.75	10.75	0.25	4.25	0.00	0.50	0.00	0.00	0.00	0.00	0.00	0.00	0.00	0.00	-0.097168	0.190430	0.984375	2.380000	-5.670000	4.760000	414.00	-0.319785	-0.100356
2.30	7.00	8.00	4.25	6.75	0.50	1.75	0.00	0.50	0.00	0.00	0.25	0.25	0.00	0.00	0.00	0.00	-0.144531	0.083008	0.972656	-3.010000	2.240000	0.770000	279.00	-0.315885	-0.084212	8.50	13.00	7.75	11.25	0.00	4.25	0.00	0.50	0.00	0.25	0.00	0.00	0.00	0.00	0.00	0.00	-0.098633	0.188965	0.972168	0.420000	-4.690000	4.690000	433.00	-0.317112	-0.096542
2.31	7.00	8.25	4.25	6.50	0.25	1.75	0.00	0.50	0.00	0.25	0.25	0.00	0.00	0.00	0.00	0.00	-0.145020	0.083008	0.984863	-3.220000	1.750000	0.770000	276.00	-0.318444	-0.081758	8.50	13.00	7.75	11.25	0.00	4.25	0.00	0.75	0.00	0.25	0.00	0.00	0.00	0.00	0.00	0.00	-0.105957	0.183594	0.987793	-1.330000	-4.130000	4.480000	437.00	-0.314687	-0.098891
2.32	7.00	8.00	4.00	6.50	0.25	1.50	0.00	0.50	0.00	0.00	0.25	0.25	0.25	0.00	0.00	0.00	-0.149902	0.075195	0.983398	-2.590000	1.260000	0.630000	271.00	-0.316320	-0.086940	8.50	13.00	7.50	11.25	0.25	4.25	0.00	0.50	0.00	0.25	0.00	0.00	0.00	0.00	0.00	0.00	-0.102051	0.185059	0.983398	-2.310000	-4.200000	4.340000	433.00	-0.316305	-0.096722
2.33	7.00	8.00	4.25	6.50	0.25	1.50	0.00	0.50	0.00	0.00	0.25	0.25	0.00	0.00	0.00	0.00	-0.149414	0.073242	0.990723	-1.960000	1.190000	0.630000	271.00	-0.319410	-0.082529	8.50	13.00	7.50	12.25	0.50	4.25	0.00	0.50	0.00	0.00	0.00	0.00	0.00	0.00	0.00	0.00	-0.099609	0.185059	0.985352	-3.640000	-3.640000	4.130000	444.00	-0.317560	-0.099587
2.34	7.00	8.00	4.00	6.50	0.50	1.75	0.00	0.50	0.00	0.00	0.00	0.25	0.25	0.00	0.00	0.00	-0.153320	0.080566	0.984375	-1.610000	1.120000	0.840000	273.00	-0.317820	-0.087017	8.50	13.00	7.00	12.25	0.25	4.25	0.00	0.50	0.00	0.25	0.00	0.00	0.00	0.00	0.00	0.00	-0.095215	0.183594	0.988281	-4.900000	-2.870000	3.990000	438.00	-0.316240	-0.101822
2.35	7.00	8.50	4.50	6.75	0.50	1.75	0.00	0.50	0.00	0.00	0.00	0.25	0.25	0.00	0.00	0.00	-0.150391	0.077637	0.982422	-1.330000	0.770000	0.840000	285.00	-0.318076	-0.086241	8.75	13.25	7.50	11.25	0.25	4.25	0.00	0.50	0.00	0.25	0.00	0.00	0.00	0.00	0.00	0.00	-0.098633	0.188477	0.980469	-6.230000	-2.030000	3.850000	438.00	-0.317259	-0.095944
2.36	7.00	8.50	4.75	6.75	0.50	2.00	0.00	0.50	0.00	0.25	0.00	0.25	0.00	0.00	0.00	0.00	-0.145508	0.081543	0.981445	-1.050000	0.350000	0.980000	291.00	-0.314968	-0.082493	8.75	13.25	7.50	11.25	0.25	4.25	0.00	0.25	0.00	0.25	0.00	0.00	0.00	0.00	0.00	0.00	-0.104004	0.183105	0.991211	-7.210000	-1.190000	3.850000	434.00	-0.319699	-0.093577
2.37	7.00	8.50	5.00	7.25	0.50	2.00	0.00	0.50	0.00	0.25	0.50	0.25	0.00	0.00	0.00	0.00	-0.146484	0.073242	0.980957	-0.770000	-0.070000	1.050000	303.00	-0.305551	-0.083931	8.75	13.00	7.50	11.25	0.25	4.25	0.00	0.25	0.00	0.25	0.00	0.00	0.00	0.25	0.00	0.00	-0.101562	0.182617	0.989746	-7.770000	-0.350000	3.570000	434.00	-0.315937	-0.092006
2.38	7.00	8.50	5.00	7.50	0.50	2.00	0.00	0.50	0.00	0.25	0.25	0.00	0.00	0.00	0.00	0.00	-0.147461	0.082520	0.980469	-0.210000	-0.420000	1.120000	301.00	-0.313765	-0.083154	8.75	13.00	7.50	11.25	0.25	4.25	0.00	0.25	0.00	0.25	0.00	0.00	0.00	0.00	0.00	0.00	-0.113281	0.185059	0.988281	-8.190000	0.140000	3.570000	432.00	-0.319226	-0.093223
2.39	7.50	8.75	4.75	7.50	0.50	2.00	0.00	0.50	0.00	0.25	0.25	0.00	0.25	0.00	0.00	0.00	-0.144043	0.081055	0.984375	0.210000	-0.770000	1.400000	307.00	-0.313116	-0.084655	8.50	13.00	7.00	10.75	0.00	4.25	0.00	0.25	0.00	0.25	0.00	0.00	0.00	0.00	0.00	0.00	-0.113281	0.185059	0.988281	-8.190000	0.140000	3.570000	417.00	-0.320954	-0.095950
2.40	7.50	9.00	4.75	7.50	0.50	2.75	0.00	0.50	0.00	0.00	0.50	0.00	0.25	0.00	0.00	0.00	-0.144531	0.078125	0.986328	0.490000	-0.980000	1.610000	317.00	-0.310094	-0.090987	8.50	12.75	6.75	10.75	0.00	4.00	0.00	0.25	0.00	0.00	0.00	0.00	0.00	0.00	0.00	0.00	-0.108398	0.182617	0.996094	-8.680000	0.770000	3.570000	408.00	-0.325111	-0.096600
2.41	7.50	8.75	4.75	7.75	0.50	3.00	0.00	0.75	0.00	0.25	0.50	0.25	0.50	0.00	0.00	0.00	-0.153320	0.081543	0.981934	0.350000	-1.190000	1.610000	330.00	-0.294240	-0.098691	8.50	12.50	6.25	10.75	0.00	4.25	0.00	0.25	0.00	0.25	0.00	0.00	0.00	0.00	0.00	0.00	-0.109375	0.182617	0.998535	-10.850000	2.520000	3.150000	405.00	-0.321009	-0.098720
2.42	7.50	8.75	4.75	8.00	0.75	3.50	0.00	1.00	0.00	0.25	0.50	0.50	0.25	0.00	0.00	0.25	-0.146484	0.076172	0.975586	0.560000	-1.680000	1.750000	345.00	-0.284857	-0.103967	8.50	12.50	6.25	10.50	0.00	3.75	0.00	0.25	0.00	0.25	0.00	0.00	0.00	0.00	0.00	0.00	-0.105957	0.180664	0.997070	-12.180000	3.640000	3.080000	398.00	-0.323330	-0.095747
2.43	7.50	8.75	5.00	8.00	0.50	3.50	0.00	0.75	0.00	0.25	0.50	0.50	0.50	0.00	0.00	0.25	-0.143066	0.075195	0.980469	1.050000	-2.240000	1.960000	343.00	-0.286000	-0.102902	8.50	12.25	6.25	9.75	0.00	3.75	0.00	0.25	0.00	0.25	0.00	0.00	0.00	0.00	0.00	0.00	-0.109863	0.182617	0.994141	-13.860000	5.040000	2.800000	388.00	-0.323517	-0.092863
2.44	8.50	8.75	5.00	8.25	0.50	4.00	0.00	1.00	0.00	0.25	0.50	0.50	0.50	0.00	0.00	0.00	-0.144531	0.080566	0.977051	0.910000	-2.520000	2.030000	363.00	-0.286844	-0.102595	8.25	11.75	6.25	9.75	0.50	3.25	0.00	0.25	0.00	0.25	0.00	0.00	0.00	0.25	0.00	0.00	-0.111328	0.180664	0.993652	-16.170000	6.790000	2.590000	384.00	-0.317885	-0.087575
2.45	8.50	9.00	5.00	8.50	0.75	4.00	0.25	1.00	0.00	0.50	0.50	0.50	0.50	0.00	0.00	0.25	-0.142578	0.082520	0.984375	0.980000	-2.870000	1.960000	377.00	-0.277628	-0.099127	8.25	11.00	6.00	9.75	0.00	2.00	0.00	0.25	0.00	0.25	0.00	0.00	0.00	0.25	0.00	0.00	-0.122559	0.185059	0.990234	-18.830000	8.540000	2.310000	357.00	-0.324984	-0.083093
2.46	8.75	9.50	4.75	8.75	1.00	4.00	0.25	1.00	0.00	0.50	0.50	0.50	0.75	0.00	0.00	0.25	-0.140137	0.084473	0.975586	0.980000	-3.150000	2.100000	388.00	-0.276765	-0.101464	8.00	10.75	5.75	9.25	0.00	1.75	0.00	0.00	0.00	0.25	0.00	0.00	0.00	0.25	0.00	0.00	-0.111328	0.186523	0.990723	-21.559999	10.220000	2.030000	339.00	-0.329338	-0.078565
2.47	9.00	9.75	5.50	9.00	1.00	4.25	0.25	1.25	0.00	0.25	0.50	0.50	0.75	0.00	0.00	0.25	-0.139160	0.086426	0.980469	0.980000	-3.430000	1.960000	406.00	-0.278084	-0.102242	7.50	10.00	5.50	8.75	0.00	1.75	0.00	0.00	0.00	0.25	0.00	0.00	0.00	0.00	0.00	0.00	-0.123047	0.178711	1.003906	-23.590000	11.480000	1.680000	319.00	-0.332219	-0.080224
2.48	9.00	10.00	6.00	8.75	1.00	4.25	0.25	1.75	0.00	0.50	0.75	0.50	0.75	0.00	0.25	0.25	-0.142578	0.084473	0.989746	1.120000	-3.850000	2.100000	425.00	-0.264579	-0.103305	7.50	9.75	5.00	8.25	0.00	1.25	0.00	0.00	0.00	0.25	0.00	0.00	0.00	0.00	0.00	0.00	-0.119629	0.176270	1.019043	-25.549999	12.320000	1.260000	302.00	-0.336471	-0.076910
2.49	9.00	11.25	6.00	8.75	1.00	4.25	0.25	1.75	0.00	0.50	1.00	0.50	1.00	0.00	0.00	0.00	-0.142578	0.084473	0.989746	1.120000	-3.850000	2.100000	436.00	-0.269081	-0.106044	7.50	9.25	4.75	7.75	0.00	1.00	0.00	0.00	0.00	0.25	0.00	0.00	0.00	0.25	0.00	0.00	-0.131836	0.188477	1.019043	-28.000000	12.880000	0.840000	289.00	-0.333309	-0.071109
2.50	9.25	11.50	6.00	8.75	1.00	4.25	0.25	1.75	0.00	0.50	1.00	0.50	1.00	0.00	0.00	0.00	-0.134766	0.086914	0.985352	1.190000	-4.060000	2.310000	441.00	-0.270508	-0.105177	7.25	8.25	4.50	6.75	0.00	1.00	0.00	0.00	0.00	0.25	0.00	0.00	0.00	0.00	0.00	0.00	-0.130371	0.190918	1.008301	-32.270000	13.720000	0.280000	264.00	-0.337931	-0.067239
2.51	10.00	11.50	6.25	10.25	1.00	4.50	0.25	2.25	0.00	0.50	0.75	0.50	1.25	0.00	0.00	0.25	-0.140137	0.076660	0.986328	1.540000	-5.320000	3.080000	476.00	-0.267609	-0.111780	7.00	7.25	4.25	6.00	0.00	0.25	0.00	0.00	0.00	0.25	0.00	0.00	0.00	0.00	0.00	0.00	-0.123535	0.198730	1.010742	-37.240002	14.000000	0.140000	236.00	-0.342733	-0.055626
2.52	10.50	12.00	6.25	10.25	1.00	4.50	0.25	2.50	0.00	0.50	1.00	1.00	1.25	0.00	0.00	0.25	-0.136719	0.079102	0.978027	1.610000	-6.090000	3.500000	495.00	-0.261349	-0.113909	5.50	6.25	3.50	4.75	0.00	0.00	0.00	0.00	0.00	0.25	0.00	0.00	0.00	0.00	0.00	0.00	-0.104492	0.203125	1.028809	-44.310001	14.070000	0.490000	190.00	-0.344168	-0.054851
2.53	11.00	12.75	6.75	10.75	1.25	4.75	0.25	2.50	0.00	0.75	1.00	1.25	1.25	0.00	0.00	0.25	-0.133789	0.086426	0.978516	1.680000	-6.580000	3.850000	526.00	-0.259190	-0.111563	4.25	5.25	2.00	3.50	0.00	0.00	0.00	0.00	0.00	0.00	0.00	0.00	0.00	0.00	0.00	0.00	-0.053711	0.327148	1.100586	-62.230000	14.910000	-1.050000	140.00	-0.358419	-0.064557
2.54	11.50	13.00	7.75	11.25	1.75	5.50	0.25	3.00	0.25	0.75	1.00	1.25	1.50	0.00	0.00	0.25	-0.133789	0.090820	0.995605	1.750000	-6.300000	3.920000	573.00	-0.251570	-0.110544	3.50	4.00	1.50	2.75	0.00	0.00	0.00	0.00	0.00	0.00	0.00	0.00	0.00	0.00	0.00	0.00	-0.093262	0.595215	1.260254	-111.650002	21.840000	-7.700000	110.00	-0.359103	-0.062200
2.55	11.50	13.25	8.00	11.25	1.75	6.00	0.25	3.50	0.00	0.50	1.25	1.00	1.75	0.00	0.00	0.25	-0.135254	0.090332	0.994629	1.330000	-5.460000	3.640000	586.00	-0.251647	-0.117719	2.50	3.25	0.50	1.75	0.00	0.00	0.00	0.00	0.00	0.00	0.00	0.00	0.00	0.00	0.00	0.00	0.001953	0.513672	1.208984	-166.250000	25.340000	-12.180000	74.00	-0.371196	-0.074116
2.56	11.25	13.50	8.25	11.50	1.75	5.75	0.25	3.75	0.25	0.75	1.50	1.00	2.00	0.00	0.00	0.50	-0.120605	0.093262	0.998535	1.050000	-4.340000	3.430000	603.00	-0.241842	-0.118160	1.50	2.00	0.25	1.00	0.00	0.00	0.00	0.00	0.00	0.00	0.00	0.00	0.00	0.00	0.00	0.00	0.044922	0.443848	1.448730	-201.669998	30.380001	-8.750000	44.00	0.000000	0.000000
2.57	11.50	13.50	8.00	11.75	1.75	6.50	0.25	3.75	0.25	1.00	1.25	1.25	2.00	0.00	0.00	0.50	-0.130371	0.097168	1.000000	0.350000	-2.800000	2.870000	615.00	-0.239651	-0.120461	0.75	1.75	0.00	0.50	0.00	0.00	0.00	0.00	0.00	0.00	0.00	0.00	0.00	0.00	0.00	0.00	0.199219	0.423340	1.627441	-222.040009	35.490002	-0.210000	27.00	0.000000	0.000000
2.58	11.75	13.25	8.00	11.50	2.00	6.75	0.25	3.75	0.50	1.00	1.50	1.50	2.00	0.00	0.00	0.50	-0.130859	0.099609	1.004883	-0.490000	-1.400000	2.310000	625.00	-0.232789	-0.117666	0.50	1.00	0.00	0.25	0.00	0.00	0.00	0.00	0.00	0.00	0.00	0.00	0.00	0.00	0.00	0.00	0.201172	1.146484	1.255371	-202.509995	38.150002	5.180000	16.00	0.000000	0.000000
2.59	12.00	13.50	8.50	11.25	2.00	6.50	0.25	4.00	0.25	1.00	1.25	1.50	2.00	0.00	0.00	0.50	-0.127441	0.096191	0.999512	-1.330000	-0.070000	1.610000	628.00	-0.237272	-0.117641	1.00	0.25	0.00	0.00	0.00	0.00	0.00	0.00	0.00	0.00	0.00	0.00	0.00	0.00	0.00	0.00	0.214355	1.274902	1.154785	-119.840004	41.650002	13.230000	12.00	0.000000	0.000000
2.60	11.75	13.50	8.25	11.50	2.00	6.50	0.25	3.75	0.00	1.00	1.75	1.50	2.50	0.00	0.00	0.50	-0.123047	0.098145	1.004883	-2.030000	1.120000	1.050000	628.00	-0.234217	-0.122286	0.25	0.25	0.00	0.00	0.00	0.00	0.00	0.00	0.00	0.00	0.00	0.00	0.00	0.00	0.00	0.00	0.299316	1.122070	1.131836	-20.230000	45.360001	25.690001	4.00	0.000000	0.000000
2.61	11.75	13.75	8.25	11.25	2.00	6.50	0.25	3.75	0.00	1.00	2.00	1.50	2.75	0.00	0.00	0.50	-0.122559	0.095215	1.004395	-2.800000	2.310000	0.350000	632.00	-0.231596	-0.123072	0.25	0.75	0.00	0.00	0.00	0.00	0.00	0.00	0.00	0.00	0.00	0.00	0.00	0.00	0.00	0.00	0.365723	0.721191	1.113281	17.920000	44.660000	43.330002	9.00	0.000000	0.000000
2.62	11.50	13.50	8.25	11.25	2.00	6.50	0.25	3.75	0.00	1.00	1.75	1.50	2.75	0.00	0.25	0.50	-0.123535	0.088867	1.000977	-3.150000	3.430000	-0.140000	628.00	-0.229615	-0.123672	0.25	0.25	0.00	0.00	0.00	0.00	0.00	0.00	0.00	0.00	0.00	0.00	0.00	0.00	0.00	0.00	0.419922	0.593750	1.102051	9.590000	40.599998	62.930000	4.00	0.000000	0.000000
2.63	11.25	13.25	8.25	11.00	2.00	6.50	0.50	3.75	0.00	1.00	2.00	1.50	2.75	0.00	0.00	0.50	-0.124023	0.087891	0.998535	-3.150000	4.410000	-0.350000	624.00	-0.227078	-0.122089	0.00	0.00	0.00	0.00	0.00	0.00	0.00	0.00	0.00	0.00	0.00	0.00	0.00	0.00	0.00	0.00	0.478516	0.604980	0.988770	-1.960000	34.369999	77.629997	0.00	0.000000	0.000000
2.64	11.25	12.75	8.00	10.75	2.00	6.25	0.50	3.75	0.00	1.00	2.00	1.50	2.75	0.00	0.25	0.50	-0.133789	0.088379	0.995117	-3.150000	5.600000	-0.630000	615.00	-0.223185	-0.121479	0.00	0.00	0.00	0.00	0.00	0.00	0.00	0.00	0.00	0.00	0.00	0.00	0.00	0.00	0.00	0.00	0.515137	0.564941	0.895508	6.090000	29.330000	84.139999	0.00	0.000000	0.000000
2.65	11.00	12.75	7.75	10.75	1.75	6.00	0.50	3.75	0.25	1.00	2.00	1.50	2.50	0.00	0.00	0.50	-0.133789	0.088379	0.995117	-3.150000	5.600000	-0.630000	603.00	-0.224441	-0.120480	0.00	0.00	0.00	0.00	0.00	0.00	0.00	0.00	0.00	0.00	0.00	0.00	0.00	0.00	0.00	0.00	0.558105	0.300293	0.854492	34.509998	22.469999	82.599998	0.00	0.000000	0.000000
2.66	11.00	12.50	7.25	10.75	1.75	6.00	0.25	3.75	0.25	1.00	2.00	1.50	2.50	0.00	0.00	0.50	-0.130371	0.085449	0.985352	-3.080000	5.810000	-0.700000	593.00	-0.225197	-0.124260	0.00	0.00	0.00	0.00	0.00	0.00	0.00	0.00	0.00	0.00	0.00	0.00	0.00	0.00	0.00	0.00	0.566895	0.222656	0.900879	37.660000	17.780001	79.730003	0.00	0.000000	0.000000
2.67	10.50	12.25	7.00	10.50	1.75	5.75	0.25	3.75	0.25	1.00	1.75	1.50	2.50	0.00	0.00	0.50	-0.132324	0.084473	0.990723	-2.730000	5.670000	-0.560000	576.00	-0.224773	-0.125923	0.00	0.00	0.00	0.00	0.00	0.00	0.00	0.00	0.00	0.00	0.00	0.00	0.00	0.00	0.00	0.00	0.566895	0.222656	0.900879	37.660000	17.780001	79.730003	0.00	0.000000	0.000000
2.68	10.25	12.00	7.00	10.25	1.75	5.75	0.25	3.75	0.50	1.00	1.75	1.50	2.50	0.00	0.25	0.50	-0.129395	0.089355	0.995605	-1.890000	5.040000	-0.350000	574.00	-0.217896	-0.124042	0.00	0.00	0.00	0.00	0.00	0.00	0.00	0.00	0.00	0.00	0.00	0.00	0.00	0.00	0.00	0.00	0.572266	0.088867	0.987793	42.420002	-0.070000	73.919998	0.00	0.000000	0.000000
2.69	10.25	11.75	6.75	9.50	1.75	5.75	0.25	3.75	0.25	1.00	1.75	1.75	2.50	0.00	0.50	0.50	-0.136230	0.087402	0.985840	-1.820000	4.410000	-0.280000	564.00	-0.214023	-0.126173	0.00	0.00	0.00	0.00	0.00	0.00	0.00	0.00	0.00	0.00	0.00	0.00	0.00	0.00	0.00	0.00	0.563965	-0.021973	1.042480	50.470001	-12.180000	70.769997	0.00	0.000000	0.000000
2.70	10.25	11.75	6.75	9.50	1.75	5.75	0.25	3.50	0.25	1.00	1.75	1.75	2.50	0.00	0.25	0.50	-0.129395	0.087891	0.980957	-1.400000	3.850000	-0.210000	558.00	-0.217967	-0.124708	0.00	0.00	0.00	0.00	0.00	0.00	0.00	0.00	0.00	0.00	0.00	0.00	0.00	0.00	0.00	0.00	0.515137	-0.157227	1.094727	59.150002	-25.059999	65.870003	0.00	0.000000	0.000000
2.71	10.00	11.75	6.75	9.50	1.75	5.75	0.25	3.50	0.25	0.75	1.75	1.75	2.25	0.00	0.25	0.50	-0.132812	0.085449	0.996094	-1.190000	3.220000	-0.070000	551.00	-0.220550	-0.125305	0.00	0.00	0.00	0.00	0.00	0.00	0.00	0.00	0.00	0.00	0.00	0.00	0.00	0.00	0.00	0.00	0.480957	-0.280762	1.110352	58.660000	-37.099998	58.520000	0.00	0.000000	0.000000
2.72	10.25	11.75	6.75	10.25	1.75	5.50	0.25	3.75	0.25	0.75	1.75	1.75	2.25	0.00	0.50	0.50	-0.133789	0.083984	0.982910	-0.910000	2.450000	0.000000	565.00	-0.218544	-0.126458	0.00	0.00	0.00	0.00	0.00	0.00	0.00	0.00	0.00	0.00	0.00	0.00	0.00	0.00	0.00	0.00	0.435059	-0.333496	1.098145	51.240002	-47.670002	50.189999	0.00	0.000000	0.000000
2.73	10.25	11.75	6.25	10.25	1.75	5.75	0.25	3.75	0.25	1.00	1.50	2.00	2.75	0.00	0.25	0.50	-0.137695	0.089355	0.988281	-0.840000	1.680000	0.140000	566.00	-0.215893	-0.131563	0.00	0.00	0.00	0.00	0.00	0.00	0.00	0.00	0.00	0.00	0.00	0.00	0.00	0.00	0.00	0.00	0.372559	-0.350098	1.073242	42.420002	-55.160000	41.509998	0.00	0.000000	0.000000
2.74	10.25	11.75	7.25	10.25	1.75	5.75	0.25	3.50	0.00	1.00	1.75	2.00	3.25	0.00	0.00	0.50	-0.133301	0.085938	0.985840	-0.910000	1.400000	0.140000	574.00	-0.218573	-0.130610	0.00	0.00	0.00	0.00	0.00	0.00	0.00	0.00	0.00	0.00	0.00	0.00	0.00	0.00	0.00	0.00	0.319336	-0.322266	1.051758	34.580002	-59.290001	33.110001	0.00	0.000000	0.000000
2.75	10.25	12.00	7.25	10.50	1.75	5.75	0.25	3.50	0.25	1.00	1.75	1.75	3.25	0.00	0.00	0.50	-0.131836	0.090820	0.984375	-0.840000	0.910000	0.210000	579.00	-0.218919	-0.128367	0.00	0.00	0.00	0.00	0.00	0.00	0.00	0.00	0.00	0.00	0.00	0.00	0.00	0.00	0.00	0.00	0.270508	-0.281738	1.062988	27.299999	-60.480000	26.320000	0.00	0.000000	0.000000
2.76	10.50	11.75	7.25	10.25	1.75	5.50	0.25	3.75	0.25	1.00	1.75	1.75	3.25	0.00	0.00	0.50	-0.125000	0.094727	0.982422	-0.980000	0.840000	0.140000	578.00	-0.217701	-0.127801	0.00	0.00	0.00	0.00	0.00	0.00	0.00	0.00	0.00	0.00	0.00	0.00	0.00	0.00	0.00	0.00	0.229004	-0.227539	1.092773	20.020000	-59.990002	21.840000	0.00	0.000000	0.000000
2.77	10.50	12.00	7.25	10.25	1.75	5.75	0.25	3.75	0.25	1.00	2.00	2.00	3.25	0.00	0.00	0.50	-0.124512	0.095215	0.985352	-1.470000	1.190000	-0.140000	587.00	-0.214573	-0.129194	0.00	0.00	0.00	0.00	0.00	0.00	0.00	0.00	0.00	0.00	0.00	0.00	0.00	0.00	0.00	0.00	0.172363	-0.165039	1.140137	14.910000	-60.060001	19.950001	0.00	0.000000	0.000000
2.78	10.50	12.25	7.00	10.50	1.75	6.00	0.25	3.75	0.25	1.00	2.25	2.25	3.25	0.00	0.25	0.50	-0.125000	0.095215	0.982422	-1.680000	1.400000	-0.210000	599.00	-0.209138	-0.131680	0.00	0.00	0.00	0.00	0.00	0.00	0.00	0.00	0.00	0.00	0.00	0.00	0.00	0.00	0.00	0.00	0.134277	-0.102539	1.149414	14.560000	-60.760002	21.139999	0.00	0.000000	0.000000
2.79	10.25	12.00	7.00	10.50	1.75	6.00	0.25	3.75	0.25	1.00	2.25	2.25	3.50	0.00	0.25	0.50	-0.128906	0.089844	0.989746	-2.100000	1.750000	-0.280000	596.00	-0.206369	-0.133617	0.00	0.00	0.00	0.00	0.00	0.00	0.00	0.00	0.00	0.00	0.00	0.00	0.00	0.00	0.00	0.00	0.074707	-0.042480	1.138672	17.990000	-60.689999	25.270000	0.00	0.000000	0.000000
2.80	10.25	11.75	7.00	10.25	1.75	6.00	0.25	4.00	0.25	1.00	2.25	2.25	3.50	0.00	0.25	0.50	-0.130859	0.088867	0.990723	-2.520000	2.310000	-0.490000	595.00	-0.204150	-0.134625	0.00	0.00	0.00	0.00	0.00	0.00	0.00	0.00	0.00	0.00	0.00	0.00	0.00	0.00	0.00	0.00	0.021484	-0.013672	1.137695	22.750000	-58.660000	31.990000	0.00	0.000000	0.000000
2.81	10.50	11.75	7.00	10.25	1.75	6.00	0.25	4.00	0.25	1.00	2.25	2.25	3.75	0.00	0.25	0.75	-0.121582	0.084961	0.985352	-3.010000	2.940000	-0.490000	601.00	-0.202522	-0.135123	0.00	0.00	0.00	0.00	0.00	0.00	0.00	0.00	0.00	0.00	0.00	0.00	0.00	0.00	0.00	0.00	-0.046387	0.007324	1.186035	24.710001	-55.650002	40.040001	0.00	0.000000	0.000000
2.82	10.25	11.75	6.75	9.50	2.00	6.00	0.25	4.00	0.50	1.25	2.25	2.25	3.75	0.00	0.00	1.00	-0.123535	0.091797	0.980957	-3.780000	3.430000	-0.770000	595.00	-0.197266	-0.132826	0.00	0.00	0.00	0.00	0.00	0.00	0.00	0.00	0.00	0.00	0.00	0.00	0.00	0.00	0.00	0.00	-0.112305	0.051270	1.219727	23.870001	-53.970001	48.090000	0.00	0.000000	0.000000
2.83	9.50	11.50	6.25	9.50	2.00	6.00	0.25	4.00	0.50	1.50	2.75	2.75	3.75	0.25	0.50	1.00	-0.121582	0.091797	0.981445	-4.760000	3.850000	-1.190000	600.00	-0.178235	-0.136436	0.00	0.00	0.00	0.00	0.00	0.00	0.00	0.00	0.00	0.00	0.00	0.00	0.00	0.00	0.00	0.00	-0.197266	0.121094	1.281250	20.650000	-55.090000	55.650002	0.00	0.000000	0.000000
2.84	9.50	11.25	7.00	9.50	2.00	6.00	0.50	4.00	0.50	1.50	2.75	3.00	4.00	0.25	0.50	1.00	-0.128906	0.091797	0.985840	-6.790000	5.250000	-1.750000	613.00	-0.174382	-0.133043	0.00	0.00	0.00	0.00	0.00	0.00	0.00	0.00	0.00	0.00	0.00	0.00	0.00	0.00	0.00	0.00	-0.311035	0.207520	1.338379	11.200000	-62.369999	61.250000	0.00	0.000000	0.000000
2.85	10.00	11.00	7.00	9.50	2.25	6.00	0.50	4.00	0.50	1.75	2.75	2.75	4.00	0.00	0.50	1.00	-0.126953	0.086426	0.985840	-7.630000	5.880000	-2.030000	616.00	-0.176873	-0.129868	0.00	0.00	0.00	0.00	0.00	0.00	0.00	0.00	0.00	0.00	0.00	0.00	0.00	0.00	0.00	0.00	-0.395508	0.339844	1.406250	0.280000	-74.970001	65.730003	0.00	0.000000	0.000000
2.86	9.50	10.25	6.75	9.25	2.25	6.00	0.50	4.00	0.50	1.75	2.75	3.00	4.00	0.00	0.50	1.00	-0.130371	0.079590	0.994629	-8.260000	6.510000	-2.380000	603.00	-0.170200	-0.132559	0.00	0.00	0.00	0.00	0.00	0.00	0.00	0.00	0.00	0.00	0.00	0.00	0.00	0.00	0.00	0.00	-0.500000	0.409180	1.415527	-1.190000	-91.910004	72.239998	0.00	0.000000	0.000000
2.87	9.00	10.00	6.25	9.25	2.25	5.75	0.50	4.00	0.50	2.25	3.00	3.25	4.00	0.25	0.25	1.00	-0.131348	0.083984	0.989746	-8.750000	7.070000	-2.450000	597.00	-0.160783	-0.133882	0.00	0.00	0.00	0.00	0.00	0.00	0.00	0.00	0.00	0.00	0.00	0.00	0.00	0.00	0.00	0.00	-0.640137	0.447266	1.318848	8.050000	-109.550003	80.779999	0.00	0.000000	0.000000
2.88	9.00	9.50	6.25	8.75	2.25	5.75	0.50	4.00	0.75	2.50	3.00	3.25	4.25	0.50	0.25	1.25	-0.140625	0.074707	0.988281	-8.820000	7.210000	-2.380000	599.00	-0.150183	-0.130516	0.00	0.00	0.00	0.00	0.00	0.00	0.00	0.00	0.00	0.00	0.00	0.00	0.00	0.00	0.00	0.00	-0.801270	0.417969	1.164551	19.530001	-122.570000	88.059998	0.00	0.000000	0.000000
2.89	8.75	9.25	6.25	8.75	2.50	5.50	0.50	4.00	0.75	2.50	3.50	3.25	4.25	0.50	0.25	1.25	-0.136719	0.074707	0.990723	-8.680000	7.630000	-2.380000	599.00	-0.145127	-0.129824	0.00	0.00	0.00	0.00	0.00	0.00	0.00	0.00	0.00	0.00	0.00	0.00	0.00	0.00	0.00	0.00	-1.050781	0.266113	0.773926	31.920000	-119.770004	98.209999	0.00	0.000000	0.000000
2.90	8.50	8.75	6.00	8.75	2.50	5.50	0.75	4.00	1.00	2.75	3.50	3.50	4.25	0.50	0.25	1.50	-0.131836	0.077148	0.987793	-8.540000	7.980000	-2.450000	602.00	-0.134416	-0.127552	0.00	0.00	0.00	0.00	0.00	0.00	0.00	0.00	0.00	0.00	0.00	0.00	0.00	0.00	0.00	0.00	-1.050781	0.266113	0.773926	31.920000	-119.770004	98.209999	0.00	0.000000	0.000000
2.91	8.00	8.75	5.75	9.00	2.50	5.25	0.75	4.00	1.25	2.75	3.50	3.75	4.50	0.50	0.50	1.50	-0.134277	0.080566	0.993164	-8.680000	8.190000	-2.520000	605.00	-0.125853	-0.129725	0.00	0.00	0.00	0.00	0.00	0.00	0.00	0.00	0.00	0.00	0.00	0.00	0.00	0.00	0.00	0.00	-1.161133	0.162598	0.627441	32.130001	-103.949997	103.320000	0.00	0.000000	0.000000
2.92	7.50	8.75	5.50	8.75	2.00	5.00	0.75	4.00	1.00	3.00	3.75	3.50	4.50	0.75	0.50	1.50	-0.137207	0.077148	0.984863	-8.750000	8.470000	-2.450000	589.00	-0.120840	-0.132729	0.00	0.00	0.00	0.00	0.00	0.00	0.00	0.00	0.00	0.00	0.00	0.00	0.00	0.00	0.00	0.00	-1.161133	0.075684	0.627441	27.860001	-84.279999	107.800003	0.00	0.000000	0.000000
2.93	7.25	8.75	5.25	8.50	2.50	5.25	0.75	4.00	2.00	3.50	3.75	3.75	5.00	1.25	0.50	2.00	-0.140137	0.074707	0.991699	-8.610000	8.750000	-2.450000	618.00	-0.100099	-0.125318	0.00	0.00	0.00	0.00	0.00	0.00	0.00	0.00	0.00	0.00	0.00	0.00	0.00	0.00	0.00	0.00	-1.191895	-0.022949	0.622559	16.030001	-51.590000	109.970001	0.00	0.000000	0.000000
2.94	7.00	8.25	5.25	8.00	2.50	5.25	0.75	4.00	2.25	3.50	3.75	4.00	5.25	1.25	0.50	2.25	-0.139648	0.073730	0.992676	-8.750000	8.890000	-2.590000	616.00	-0.090492	-0.125322	0.00	0.00	0.00	0.00	0.00	0.00	0.00	0.00	0.00	0.00	0.00	0.00	0.00	0.00	0.00	0.00	-1.191895	-0.022949	0.622559	16.030001	-51.590000	109.970001	0.00	0.000000	0.000000
2.95	6.50	8.00	5.25	7.75	2.50	4.75	0.75	4.00	2.25	3.50	4.00	4.25	5.25	1.25	0.50	2.25	-0.142090	0.069824	0.999512	-9.030000	9.170000	-2.870000	606.00	-0.083154	-0.126026	0.00	0.00	0.00	0.00	0.00	0.00	0.00	0.00	0.00	0.00	0.00	0.00	0.00	0.00	0.00	0.00	-1.197266	-0.093262	0.623535	18.270000	-31.920000	91.279999	0.00	0.000000	0.000000
2.96	6.25	7.25	5.00	7.50	2.50	4.75	0.75	4.00	2.75	3.50	4.00	4.50	5.25	1.50	0.75	2.50	-0.143555	0.072754	0.988770	-8.610000	9.310000	-2.660000	606.00	-0.067843	-0.122977	0.00	0.00	0.00	0.00	0.00	0.00	0.00	0.00	0.00	0.00	0.00	0.00	0.00	0.00	0.00	0.00	-1.176270	-0.146484	0.595215	19.600000	-23.450001	74.199997	0.00	0.000000	0.000000
2.97	6.00	6.75	4.75	7.25	2.50	4.50	1.00	4.00	3.25	3.75	4.25	4.50	5.50	1.75	0.75	2.75	-0.144531	0.066406	0.991211	-8.050000	9.590000	-2.730000	612.00	-0.052528	-0.117243	0.00	0.00	0.00	0.00	0.00	0.00	0.00	0.00	0.00	0.00	0.00	0.00	0.00	0.00	0.00	0.00	-1.133789	-0.170410	0.596680	18.059999	-13.860000	54.320000	0.00	0.000000	0.000000
2.98	5.75	6.50	4.75	6.75	2.25	4.50	1.00	4.00	3.25	4.25	4.75	4.75	6.25	2.00	1.00	3.00	-0.145996	0.065430	0.989746	-7.420000	10.150000	-2.730000	623.00	-0.036198	-0.119726	0.00	0.00	0.00	0.00	0.00	0.00	0.00	0.00	0.00	0.00	0.00	0.00	0.00	0.00	0.00	0.00	-1.702637	-0.322266	0.144531	8.820000	-8.610000	33.599998	0.00	0.000000	0.000000
2.99	5.50	6.00	4.50	6.50	2.25	4.50	1.00	4.00	3.75	4.50	4.75	4.75	6.25	2.25	1.00	3.50	-0.145996	0.076172	0.995117	-7.210000	10.990000	-2.800000	624.00	-0.023448	-0.116080	0.00	0.25	0.00	0.00	0.00	0.00	0.00	0.00	0.00	0.00	0.00	0.00	0.00	0.00	0.00	0.00	-1.057129	-0.779785	0.277344	-42.349998	36.680000	36.680000	2.00	0.000000	0.000000
3.00	4.75	5.50	4.50	6.25	2.25	4.25	1.00	4.00	4.25	4.25	5.25	5.00	5.75	2.25	1.00	3.50	-0.145020	0.079102	0.992188	-6.720000	13.020000	-3.290000	615.00	-0.011473	-0.112612	0.00	1.00	0.00	0.00	0.00	0.00	0.00	0.00	0.00	0.00	0.00	0.00	0.00	0.00	0.00	0.00	-0.187988	-0.147461	0.459473	-63.770000	84.489998	25.059999	8.00	0.000000	0.000000
3.01	4.50	5.25	4.25	5.50	2.25	4.25	1.00	4.00	4.25	4.75	5.50	5.25	5.75	2.75	1.00	3.75	-0.145020	0.079102	0.992188	-6.720000	13.020000	-3.290000	615.00	0.003033	-0.110676	0.75	2.00	0.00	0.00	0.00	0.00	0.00	0.00	0.00	0.00	0.00	0.00	0.00	0.00	0.00	0.00	0.258789	-0.132812	1.327148	-37.170002	96.949997	20.370001	24.00	0.000000	0.000000
3.02	4.50	4.75	4.00	5.00	2.00	4.25	1.00	3.75	4.50	5.00	5.50	5.25	5.75	3.25	1.25	3.75	-0.148926	0.076660	0.994141	-6.370000	16.450001	-4.340000	609.00	0.016472	-0.104759	2.50	4.00	0.00	0.75	0.00	0.00	0.00	0.00	0.00	0.00	0.00	0.00	0.00	0.00	0.00	0.00	0.320801	-0.187500	1.180176	-24.780001	76.650002	18.620001	65.00	-0.396891	-0.072615
3.03	4.00	4.25	3.75	4.50	1.75	4.25	1.00	3.75	4.75	5.25	5.75	5.50	5.75	3.50	1.50	3.75	-0.148926	0.071777	1.003906	-5.880000	18.760000	-5.040000	605.00	0.033579	-0.103780	4.25	5.75	0.25	1.50	0.00	0.00	0.00	0.00	0.00	0.00	0.00	0.00	0.00	0.00	0.00	0.00	0.165527	-0.188477	0.908691	-17.290001	64.820000	13.790000	106.00	-0.389759	-0.064175
3.04	3.50	3.75	3.50	4.25	1.75	4.00	1.00	3.75	5.00	5.75	6.25	5.50	5.75	3.75	1.50	3.75	-0.153320	0.068848	1.009766	-5.390000	21.629999	-5.600000	603.00	0.049023	-0.100613	6.00	6.50	0.75	2.25	0.00	0.00	0.00	0.00	0.00	0.00	0.00	0.00	0.00	0.00	0.00	0.00	-0.023926	-0.105469	0.674805	13.510000	93.870003	12.880000	142.00	-0.382654	-0.051490
3.05	3.50	3.50	3.25	3.75	1.75	3.50	1.00	3.50	5.25	6.00	6.50	5.75	5.75	4.50	2.25	4.00	-0.161621	0.076660	1.006836	-4.410000	24.990000	-6.300000	609.00	0.068211	-0.092977	7.50	7.75	1.50	3.50	0.00	0.00	0.00	0.00	0.00	0.00	0.00	0.00	0.00	0.00	0.00	0.00	-0.172363	-0.091797	1.051270	33.599998	130.759995	9.380000	187.00	-0.374956	-0.051627
3.06	3.50	3.25	2.75	3.50	1.25	2.25	0.75	3.00	5.75	6.50	7.00	5.75	5.75	4.75	2.50	4.25	-0.164062	0.072754	1.011230	-3.850000	28.770000	-7.140000	593.00	0.089146	-0.084472	8.00	9.00	2.00	4.50	0.00	0.00	0.00	0.00	0.00	0.00	0.00	0.00	0.00	0.00	0.00	0.00	-0.279297	-0.025879	1.477539	45.220001	149.309998	1.540000	217.00	-0.370985	-0.058374
3.07	2.50	1.75	2.25	3.00	1.00	1.50	0.75	2.75	5.75	6.75	7.25	6.00	5.50	5.25	2.75	4.25	-0.172363	0.074219	1.020020	-2.940000	33.670002	-7.980000	558.00	0.125477	-0.079679	8.50	9.75	4.00	5.50	0.00	0.00	0.00	0.00	0.00	0.00	0.00	0.00	0.00	0.00	0.00	0.00	-0.308594	-0.029297	1.536133	44.380001	148.820007	-11.900000	259.00	-0.361120	-0.052742
3.08	0.00	0.00	1.75	2.25	0.75	1.00	0.50	2.25	7.00	7.00	7.25	6.00	5.25	5.50	3.00	4.50	-0.167969	0.061035	1.021484	-1.260000	40.320000	-8.890000	510.00	0.188965	-0.069294	8.75	10.50	4.75	7.00	0.00	0.00	0.00	0.00	0.00	0.00	0.00	0.00	0.00	0.00	0.00	0.00	-0.268555	0.100098	1.468750	40.880001	137.130005	-24.080000	290.00	-0.356330	-0.059077
3.09	0.00	0.00	1.25	0.75	0.50	0.50	0.25	1.75	6.50	7.25	7.25	5.75	5.25	6.00	3.25	4.50	-0.188477	0.089355	1.003906	3.430000	50.540001	-11.340000	473.00	0.220353	-0.062710	9.00	11.50	5.50	8.25	0.00	0.00	0.00	0.00	0.00	0.00	0.00	0.00	0.00	0.00	0.00	0.00	-0.257812	0.568359	1.613770	44.869999	121.520004	-26.670000	321.00	-0.353405	-0.063587
3.10	0.00	0.00	0.75	0.25	0.25	0.50	0.25	1.25	7.00	7.25	7.25	5.75	4.50	6.50	3.25	4.50	-0.183594	0.068359	1.077637	7.000000	64.959999	-14.280000	457.00	0.239574	-0.046609	8.75	11.75	6.25	9.25	0.00	0.50	0.00	0.00	0.00	0.25	0.00	0.00	0.00	0.00	0.00	0.00	-0.279297	0.382812	1.642090	-4.270000	58.799999	-8.820000	346.00	-0.342606	-0.068823
3.11	0.00	0.00	0.25	0.00	0.00	0.25	0.25	0.75	7.25	7.25	7.25	5.50	4.25	7.25	3.25	4.50	-0.213867	0.113770	1.105957	7.140000	81.830002	-15.260000	442.00	0.259553	-0.032692	8.50	12.25	6.25	9.25	0.25	1.00	0.00	0.25	0.00	0.25	0.00	0.00	0.00	0.00	0.00	0.00	-0.258301	0.313477	1.002930	3.570000	2.030000	4.130000	358.00	-0.335708	-0.076192
3.12	0.00	0.00	0.00	0.00	0.00	0.00	0.00	0.50	6.50	7.25	7.00	5.50	3.75	7.75	3.25	4.50	-0.225098	0.113770	1.131836	6.020000	99.470001	-18.200001	418.00	0.271508	-0.031378	8.25	11.50	6.00	8.75	0.25	1.50	0.00	0.25	0.00	0.25	0.00	0.00	0.00	0.00	0.00	0.00	-0.136230	0.174805	1.069336	-10.430000	14.000000	7.420000	347.00	-0.332356	-0.077705
3.13	0.00	0.00	0.00	0.00	0.00	0.00	0.00	0.25	5.75	7.00	6.75	5.25	2.75	7.75	3.00	4.25	-0.248047	0.135742	1.168457	-0.140000	115.919998	-23.170000	387.00	0.276246	-0.023553	8.00	10.75	5.75	9.25	0.25	1.75	0.00	0.25	0.00	0.25	0.00	0.00	0.00	0.00	0.00	0.00	-0.090820	0.112305	1.078613	-7.700000	7.560000	6.580000	343.00	-0.328855	-0.082169
3.14	0.00	0.00	0.00	0.00	0.00	0.00	0.00	0.25	5.75	6.75	6.25	4.75	2.25	7.75	3.00	4.25	-0.277344	0.153809	1.191895	-7.770000	130.270004	-29.469999	371.00	0.279169	-0.014672	7.50	10.75	6.00	9.25	0.50	2.00	0.00	0.50	0.00	0.50	0.25	0.00	0.25	0.00	0.00	0.00	-0.120605	0.150391	0.940918	-6.860000	1.260000	3.850000	357.00	-0.311350	-0.088192
3.15	0.00	0.00	0.00	0.00	0.00	0.00	0.00	0.00	5.50	6.50	5.75	4.50	2.00	8.00	2.75	4.00	-0.299805	0.139160	1.167480	-15.750000	143.289993	-35.770000	351.00	0.283927	-0.005491	7.50	10.75	6.25	9.75	0.50	2.75	0.00	0.25	0.00	0.50	0.25	0.00	0.25	0.25	0.00	0.25	-0.137207	0.157227	1.025879	-6.440000	-1.680000	4.480000	371.00	-0.304247	-0.089048
3.16	0.00	0.00	0.00	0.00	0.00	0.00	0.00	0.00	5.25	6.00	5.50	4.50	1.50	7.75	2.50	3.75	-0.371094	0.141602	1.179688	-31.920000	168.559998	-46.759998	332.00	0.284641	-0.002089	8.50	10.75	6.75	9.75	0.25	4.25	0.00	0.75	0.00	0.50	0.25	0.00	0.25	0.25	0.00	0.25	-0.131836	0.152344	1.006348	-5.670000	-4.900000	4.900000	405.00	-0.296575	-0.095076
3.17	0.00	0.00	0.00	0.00	0.00	0.00	0.00	0.00	4.75	5.75	5.25	4.00	1.50	7.75	2.50	3.75	-0.371094	0.141602	1.179688	-31.920000	168.559998	-46.759998	316.00	0.287146	-0.002471	8.50	11.00	7.75	10.50	0.50	4.25	0.00	1.00	0.00	0.50	0.25	0.00	0.25	0.25	0.00	0.25	-0.127441	0.151855	1.002930	-6.790000	-7.210000	3.920000	431.00	-0.292977	-0.094803
3.18	0.00	0.00	0.00	0.00	0.00	0.00	0.00	0.00	4.50	5.25	5.00	3.75	1.00	7.75	2.25	3.50	-0.423340	0.161621	1.306641	-48.720001	188.229996	-57.470001	296.00	0.289650	0.005128	8.50	12.50	7.75	10.75	0.50	4.25	0.00	1.00	0.00	0.50	0.25	0.00	0.25	0.50	0.00	0.25	-0.127441	0.151855	1.002930	-6.790000	-7.210000	3.920000	448.00	-0.293359	-0.096355
3.19	0.00	0.00	0.00	0.00	0.00	0.00	0.00	0.00	4.25	5.00	4.50	3.50	0.75	7.25	2.00	2.75	-0.424805	0.171875	1.212402	-58.939999	196.419998	-63.770000	271.00	0.289401	0.012588	9.00	12.50	8.00	10.75	0.50	4.75	0.00	1.50	0.00	0.50	0.25	0.00	0.50	0.50	0.00	0.25	-0.120605	0.127930	1.017578	-5.460000	-7.140000	4.130000	469.00	-0.286692	-0.101076
3.20	0.00	0.00	0.00	0.00	0.00	0.00	0.00	0.00	3.75	5.00	4.00	3.00	0.25	6.50	1.50	2.25	-0.547852	0.310059	1.265625	-56.070000	205.449997	-70.279999	238.00	0.289012	0.024060	9.00	12.50	8.50	11.25	0.75	4.75	0.00	1.50	0.00	0.50	0.25	0.00	0.50	0.25	0.00	0.25	-0.120605	0.127930	1.017578	-5.460000	-7.140000	4.130000	480.00	-0.288475	-0.100629
3.21	0.00	0.00	0.00	0.00	0.00	0.00	0.00	0.00	3.50	4.50	4.00	2.25	0.25	5.75	1.00	1.75	-0.658691	0.338379	1.422363	-37.869999	214.059998	-78.680000	210.00	0.286389	0.032794	9.00	13.00	8.50	11.25	0.75	5.50	0.00	1.50	0.00	0.50	0.25	0.00	0.50	0.25	0.00	0.25	-0.119629	0.130371	1.015137	0.350000	-6.650000	5.110000	492.00	-0.287504	-0.103805
3.22	0.00	0.00	0.00	0.00	0.00	0.00	0.00	0.00	3.00	4.25	3.75	2.00	0.00	5.50	0.75	1.50	-0.590820	0.287109	1.402344	-17.500000	219.100006	-88.690002	189.00	0.287588	0.038302	9.00	13.00	8.75	12.25	0.75	5.25	0.00	1.75	0.00	0.50	0.50	0.00	0.50	0.25	0.00	0.25	-0.111328	0.140137	0.998535	2.170000	-6.650000	5.740000	508.00	-0.283752	-0.106428
3.23	0.00	0.00	0.00	0.00	0.00	0.00	0.00	0.00	2.75	4.25	3.50	1.75	0.00	5.25	0.50	1.00	-0.543945	0.351562	1.240234	-7.140000	225.259995	-100.099998	175.00	0.285999	0.046133	9.25	13.75	8.75	12.50	1.00	5.25	0.00	1.75	0.00	0.50	0.50	0.25	0.50	0.50	0.00	0.25	-0.110352	0.141602	0.995117	3.010000	-6.440000	6.090000	526.00	-0.280300	-0.105753
3.24	0.00	0.00	0.00	0.00	0.00	0.00	0.00	0.00	2.25	3.75	2.75	1.50	0.00	4.75	0.50	0.75	-0.498047	0.317383	1.323242	0.700000	226.029999	-112.910004	149.00	0.288873	0.049316	9.25	14.00	8.75	12.50	1.00	6.25	0.00	2.00	0.00	0.50	0.50	0.25	0.50	0.25	0.00	0.25	-0.117676	0.144043	0.999512	3.150000	-6.510000	6.440000	539.00	-0.279250	-0.111942
3.25	0.00	0.00	0.00	0.00	0.00	0.00	0.00	0.00	1.50	3.50	2.50	1.25	0.00	3.75	0.50	0.75	-0.491699	0.245605	1.286133	6.860000	222.320007	-124.669998	125.00	0.287167	0.034701	9.50	14.00	9.00	12.50	1.00	6.50	0.00	2.25	0.00	0.75	0.50	0.25	0.50	0.25	0.00	0.25	-0.114258	0.149414	1.002441	3.080000	-6.790000	6.650000	553.00	-0.275230	-0.111795
3.26	0.00	0.00	0.00	0.00	0.00	0.00	0.00	0.00	1.25	3.00	2.00	1.00	0.00	3.25	0.00	0.50	-0.534668	0.229980	1.369141	2.450000	216.369995	-134.539993	100.00	0.283540	0.045713	9.50	14.00	9.00	13.00	1.25	7.00	0.00	2.50	0.00	0.50	0.50	0.25	0.50	0.50	0.00	0.25	-0.110840	0.148438	1.003906	2.870000	-6.930000	6.440000	568.00	-0.271785	-0.114894
3.27	0.00	0.00	0.00	0.00	0.00	0.00	0.00	0.00	0.75	2.50	1.50	0.75	0.00	1.75	0.00	0.50	-0.536133	0.220703	1.291504	-14.910000	207.199997	-144.059998	71.00	0.273773	0.025821	9.50	14.50	9.25	13.75	1.00	7.00	0.00	2.75	0.00	0.75	0.50	0.25	1.00	0.50	0.00	0.25	-0.111816	0.150391	1.003906	2.940000	-6.930000	6.160000	590.00	-0.267039	-0.119787
3.28	0.00	0.00	0.00	0.00	0.00	0.00	0.00	0.00	0.50	2.00	1.25	0.50	0.00	0.50	0.00	0.50	-0.465820	0.297363	1.116211	-31.570000	198.240005	-155.050003	48.00	0.000000	0.000000	9.50	15.25	9.25	14.00	1.00	7.25	0.00	3.00	0.00	0.75	0.50	0.25	1.00	0.50	0.00	0.25	-0.112793	0.153809	1.002441	3.080000	-7.000000	5.950000	605.00	-0.266749	-0.122902
3.29	0.00	0.00	0.00	0.00	0.00	0.00	0.00	0.00	0.25	1.50	1.00	0.50	0.00	0.00	0.00	0.50	-0.434082	0.298340	1.009766	-42.840000	188.440002	-167.089996	34.00	0.000000	0.000000	10.00	15.25	9.25	14.00	1.25	8.00	0.00	3.50	0.00	1.00	0.50	0.25	1.25	0.50	0.25	0.50	-0.110352	0.148926	1.016602	3.290000	-6.930000	5.810000	634.00	-0.255998	-0.125741
3.30	0.00	0.00	0.00	0.00	0.00	0.00	0.00	0.00	0.00	1.00	1.00	0.25	0.00	0.00	0.00	0.00	-0.220215	0.313965	0.997559	-54.320000	176.399994	-177.169998	22.00	0.000000	0.000000	10.50	15.50	9.50	14.50	1.25	8.75	0.25	3.50	0.00	1.00	0.50	0.25	1.50	0.50	0.00	0.50	-0.113770	0.154785	1.014160	3.430000	-6.580000	5.460000	659.00	-0.256035	-0.125001
3.31	0.00	0.00	0.00	0.00	0.00	0.00	0.00	0.00	0.00	1.00	0.50	0.00	0.00	0.00	0.00	0.00	0.259277	0.519043	1.084473	-61.740002	156.940002	-180.320007	14.00	0.000000	0.000000	10.00	15.25	9.50	14.75	1.25	8.75	0.00	3.50	0.00	0.75	0.50	0.50	1.50	0.50	0.00	0.50	-0.112793	0.156250	1.015137	3.500000	-6.510000	5.250000	651.00	-0.256456	-0.130240
3.32	0.00	0.00	0.00	0.00	0.00	0.00	0.00	0.00	0.00	0.50	0.50	0.00	0.00	0.00	0.00	0.00	0.338379	1.498535	1.855957	31.639999	48.509998	-102.620003	10.00	0.000000	0.000000	10.50	15.25	9.75	14.50	1.25	8.75	0.00	3.50	0.00	0.75	0.50	0.50	1.50	0.50	0.00	0.50	-0.108887	0.157227	1.008789	3.640000	-6.160000	5.040000	656.00	-0.257432	-0.127299
3.33	0.00	0.00	0.00	0.00	0.00	0.00	0.00	0.00	0.00	0.50	0.50	0.00	0.00	0.00	0.00	0.00	0.338379	1.498535	1.855957	31.639999	48.509998	-102.620003	10.00	0.000000	0.000000	10.50	15.50	9.75	14.75	2.00	9.00	0.00	3.50	0.00	0.75	0.75	0.50	1.50	0.50	0.00	0.50	-0.104980	0.156738	1.014648	3.640000	-5.670000	4.900000	673.00	-0.254456	-0.126171
3.34	0.00	0.00	0.00	0.00	0.00	0.00	0.00	0.00	0.00	0.50	0.25	0.00	0.00	0.00	0.00	0.00	0.701172	1.262207	1.281738	84.139999	-15.120000	-47.250000	7.00	0.000000	0.000000	10.50	15.75	9.75	14.50	2.00	9.00	0.00	3.75	0.00	0.75	0.50	0.25	1.75	0.50	0.00	0.50	-0.112305	0.153809	1.011230	3.640000	-5.180000	4.760000	673.00	-0.255704	-0.127724
3.35	0.00	0.00	0.00	0.00	0.00	0.00	0.00	0.00	0.00	0.50	0.00	0.00	0.00	0.00	0.00	0.00	0.289062	0.739746	0.658203	80.150002	-80.150002	37.590000	5.00	0.000000	0.000000	10.50	15.50	9.75	14.75	2.00	9.00	0.00	3.75	0.00	1.00	0.50	0.25	1.75	0.50	0.00	0.50	-0.111328	0.154297	1.020020	3.990000	-4.690000	4.690000	676.00	-0.253576	-0.127290
3.36	0.00	0.00	0.00	0.00	0.00	0.00	0.00	0.00	0.00	0.00	0.00	0.00	0.00	0.00	0.00	0.00	0.230957	0.645508	0.441406	76.720001	-85.190002	62.299999	0.00	0.000000	0.000000	10.00	15.50	9.75	14.50	1.75	8.75	0.00	3.50	0.00	0.75	0.75	0.50	1.75	0.50	0.00	0.50	-0.107910	0.157227	1.018066	4.690000	-4.690000	4.620000	663.00	-0.252865	-0.128645
3.37	0.00	0.00	0.00	0.00	0.00	0.00	0.00	0.00	0.00	0.00	0.00	0.00	0.00	0.00	0.00	0.00	0.213867	0.514160	0.446289	85.540001	-82.320000	77.000000	0.00	0.000000	0.000000	10.00	15.25	9.50	14.25	1.75	8.75	0.00	3.75	0.00	1.00	0.75	0.25	2.00	0.25	0.00	0.50	-0.110840	0.151367	1.015625	5.740000	-4.760000	4.620000	659.00	-0.251498	-0.131000
3.38	0.00	0.00	0.00	0.00	0.00	0.00	0.00	0.00	0.00	0.00	0.00	0.00	0.00	0.00	0.00	0.00	0.215820	0.330078	0.556152	101.080002	-78.050003	84.840004	0.00	0.000000	0.000000	9.75	15.00	9.50	14.25	1.50	9.00	0.00	3.75	0.00	1.00	0.50	0.25	1.75	0.50	0.00	0.50	-0.108887	0.157715	1.008789	6.860000	-4.970000	4.550000	652.00	-0.251573	-0.131159
3.39	0.00	0.00	0.00	0.00	0.00	0.00	0.00	0.00	0.00	0.00	0.00	0.00	0.00	0.00	0.00	0.00	0.239258	0.131836	0.694336	113.050003	-78.050003	87.360001	0.00	0.000000	0.000000	9.75	15.00	9.25	14.25	1.25	8.75	0.00	3.50	0.00	0.75	0.50	0.50	1.50	0.50	0.00	0.50	-0.104980	0.157227	1.005859	7.140000	-4.970000	4.410000	639.00	-0.255105	-0.131141
3.40	0.00	0.00	0.00	0.00	0.00	0.00	0.00	0.00	0.00	0.00	0.00	0.00	0.00	0.00	0.00	0.00	0.254395	-0.045410	0.838379	117.110001	-83.090004	85.050003	0.00	0.000000	0.000000	9.50	14.75	9.25	14.25	1.25	8.25	0.00	3.50	0.00	0.50	0.50	0.50	1.50	0.50	0.00	0.50	-0.110840	0.161133	1.010254	7.560000	-5.320000	4.340000	628.00	-0.256698	-0.131543
3.41	0.00	0.00	0.00	0.00	0.00	0.00	0.00	0.00	0.00	0.00	0.00	0.00	0.00	0.00	0.00	0.00	0.236816	-0.172363	0.963379	116.340004	-92.820000	79.169998	0.00	0.000000	0.000000	9.75	14.75	9.25	14.00	1.25	8.00	0.00	3.50	0.00	0.75	0.50	0.25	1.50	0.25	0.00	0.50	-0.113770	0.155762	1.013672	8.540000	-6.020000	4.270000	623.00	-0.259552	-0.129278
3.42	0.00	0.00	0.00	0.00	0.00	0.00	0.00	0.00	0.00	0.00	0.00	0.00	0.00	0.00	0.00	0.00	0.207520	-0.264648	1.064941	116.900002	-106.050003	70.070000	0.00	0.000000	0.000000	9.75	14.50	9.25	14.00	1.25	8.00	0.00	3.50	0.00	0.75	0.50	0.50	1.50	0.50	0.00	0.25	-0.107422	0.158203	0.999023	9.940000	-6.860000	4.200000	624.00	-0.256347	-0.128467
3.43	0.00	0.00	0.00	0.00	0.00	0.00	0.00	0.00	0.00	0.00	0.00	0.00	0.00	0.00	0.00	0.00	0.151367	-0.360352	1.170898	121.800003	-121.520004	57.750000	0.00	0.000000	0.000000	9.50	14.50	9.25	14.00	1.25	8.00	0.00	3.50	0.00	0.75	0.50	0.50	1.50	0.50	0.00	0.25	-0.098145	0.168457	0.982910	9.870000	-6.860000	4.060000	622.00	-0.255787	-0.129371
3.44	0.00	0.00	0.00	0.00	0.00	0.00	0.00	0.00	0.00	0.00	0.00	0.00	0.00	0.00	0.00	0.00	0.127441	-0.467285	1.245605	126.629997	-138.320007	43.540001	0.00	0.000000	0.000000	9.50	14.25	9.00	14.00	1.25	8.00	0.00	3.50	0.00	0.50	0.50	0.50	1.75	0.50	0.00	0.50	-0.099121	0.175293	0.979980	8.050000	-6.020000	3.850000	618.00	-0.254491	-0.132338
3.45	0.00	0.00	0.00	0.00	0.00	0.00	0.00	0.00	0.00	0.00	0.00	0.00	0.00	0.00	0.00	0.00	0.086426	-0.563965	1.279297	126.279999	-154.419998	29.610001	0.00	0.000000	0.000000	9.50	14.25	9.00	13.75	1.25	8.00	0.00	3.75	0.00	0.75	0.50	0.50	1.75	0.25	0.00	0.50	-0.101074	0.175781	0.979492	3.430000	-3.710000	3.570000	619.00	-0.253200	-0.133643
3.46	0.00	0.00	0.00	0.00	0.00	0.00	0.00	0.00	0.00	0.00	0.00	0.00	0.00	0.00	0.00	0.00	0.033691	-0.626465	1.298828	119.209999	-167.789993	16.799999	0.00	0.000000	0.000000	9.50	14.25	8.75	13.75	1.25	8.00	0.00	3.75	0.00	0.75	0.50	0.50	2.00	0.50	0.00	0.50	-0.101074	0.175781	0.979492	3.430000	-3.710000	3.570000	621.00	-0.249697	-0.134635
3.47	0.00	0.00	0.00	0.00	0.00	0.00	0.00	0.00	0.00	0.00	0.00	0.00	0.00	0.00	0.00	0.00	-0.026367	-0.645020	1.300293	109.199997	-178.080002	5.250000	0.00	0.000000	0.000000	9.00	14.25	8.75	13.75	1.25	8.25	0.00	3.75	0.00	0.75	0.75	0.50	2.25	0.50	0.00	0.50	-0.095703	0.180176	0.983398	-0.420000	-1.820000	3.360000	623.00	-0.244968	-0.138014
3.48	0.00	0.00	0.00	0.00	0.00	0.00	0.00	0.00	0.00	0.00	0.00	0.00	0.00	0.00	0.00	0.00	-0.073730	-0.637207	1.279785	98.840004	-185.009995	-5.040000	0.00	0.000000	0.000000	9.25	14.00	8.75	13.75	1.00	8.25	0.00	3.75	0.00	0.75	0.75	0.50	2.25	0.25	0.00	0.50	-0.100586	0.180176	0.990723	-0.420000	-1.820000	3.360000	618.00	-0.247552	-0.138779
3.49	0.00	0.00	0.00	0.00	0.00	0.00	0.00	0.00	0.00	0.00	0.00	0.00	0.00	0.00	0.00	0.00	-0.126953	-0.600586	1.249023	87.919998	-188.160004	-13.370000	0.00	0.000000	0.000000	9.25	13.75	8.75	13.75	1.25	8.00	0.00	4.00	0.00	0.75	0.50	0.75	3.00	0.00	0.00	0.50	-0.105469	0.175293	0.993164	-3.990000	-0.560000	3.150000	624.00	-0.243677	-0.143536
3.50	0.00	0.00	0.00	0.00	0.00	0.00	0.00	0.00	0.00	0.00	0.00	0.00	0.00	0.00	0.00	0.00	-0.159668	-0.528320	1.234863	77.769997	-186.830002	-18.620001	0.00	0.000000	0.000000	9.25	14.00	8.75	13.75	1.25	8.25	0.00	4.00	0.00	0.75	0.75	0.50	3.25	0.50	0.00	0.75	-0.109375	0.170898	1.004395	-4.480000	-0.490000	3.220000	636.00	-0.237328	-0.142796
3.51	0.00	0.00	0.00	0.00	0.00	0.00	0.00	0.00	0.00	0.00	0.00	0.00	0.00	0.00	0.00	0.00	-0.176270	-0.448730	1.257812	68.459999	-182.699997	-20.230000	0.00	0.000000	0.000000	9.00	14.00	8.75	13.00	1.25	8.25	0.00	4.00	0.00	1.00	0.75	0.75	3.00	0.50	0.00	1.00	-0.107910	0.169922	0.998535	-4.410000	-0.490000	3.290000	630.00	-0.232691	-0.141893
3.52	0.00	0.00	0.00	0.00	0.00	0.00	0.00	0.00	0.00	0.00	0.00	0.00	0.00	0.00	0.00	0.00	-0.153809	-0.292969	1.309082	55.160000	-172.690002	-13.510000	0.00	0.000000	0.000000	9.00	13.75	8.75	13.75	1.25	8.25	0.00	4.25	0.00	1.00	0.75	0.75	3.25	0.50	0.00	1.00	-0.105957	0.177246	0.998047	-4.620000	-0.630000	3.220000	641.00	-0.230284	-0.145140
3.53	0.00	0.00	0.00	0.00	0.00	0.00	0.00	0.00	0.00	0.00	0.00	0.00	0.00	0.00	0.00	0.00	-0.148926	-0.226074	1.342773	54.180000	-168.070007	-5.530000	0.00	0.000000	0.000000	9.25	13.75	8.75	13.75	1.25	8.25	0.00	4.25	0.00	1.00	0.75	0.75	3.25	0.50	0.00	1.00	-0.106934	0.164062	0.998047	-5.040000	-0.770000	3.220000	643.00	-0.230921	-0.144205
3.54	0.00	0.00	0.00	0.00	0.00	0.00	0.00	0.00	0.00	0.00	0.00	0.00	0.00	0.00	0.00	0.00	-0.154785	-0.183105	1.404297	57.750000	-164.639999	4.970000	0.00	0.000000	0.000000	9.25	13.50	8.75	13.75	1.50	9.00	0.00	4.25	0.00	1.00	0.75	0.75	3.75	0.50	0.25	1.00	-0.106934	0.168457	1.001465	-5.530000	-0.700000	3.010000	657.00	-0.224256	-0.146510
3.55	0.00	0.00	0.00	0.00	0.00	0.00	0.00	0.00	0.00	0.00	0.00	0.00	0.00	0.00	0.00	0.00	-0.162109	-0.183594	1.472656	63.000000	-163.100006	17.990000	0.00	0.000000	0.000000	9.00	13.50	8.75	13.75	1.50	9.00	0.00	4.25	0.00	1.00	0.75	0.75	3.75	0.50	0.25	1.25	-0.108398	0.169922	0.998047	-5.950000	-0.560000	2.870000	656.00	-0.222498	-0.147748
3.56	0.00	0.00	0.00	0.00	0.00	0.00	0.00	0.00	0.00	0.00	0.00	0.00	0.00	0.00	0.00	0.00	-0.180176	-0.227051	1.545410	65.239998	-163.309998	32.270000	0.00	0.000000	0.000000	9.00	13.50	8.50	13.75	1.50	9.00	0.00	4.75	0.00	1.25	0.75	0.75	4.00	0.50	0.25	1.25	-0.116699	0.148926	1.001953	-5.950000	-0.490000	2.800000	665.00	-0.217304	-0.151395
3.57	0.00	0.00	0.00	0.00	0.00	0.00	0.00	0.00	0.00	0.00	0.00	0.00	0.00	0.00	0.00	0.00	-0.207031	-0.290527	1.576660	60.619999	-164.220001	45.639999	0.00	0.000000	0.000000	9.00	13.25	8.75	13.75	1.50	9.00	0.00	4.75	0.00	1.25	0.75	1.00	4.00	0.50	0.25	1.50	-0.113770	0.169922	1.000977	-5.670000	-0.630000	2.590000	669.00	-0.214245	-0.151251
3.58	0.00	0.00	0.00	0.00	0.00	0.00	0.00	0.00	0.00	0.00	0.00	0.00	0.00	0.00	0.00	0.00	-0.240234	-0.330566	1.564941	50.189999	-164.360001	55.580002	0.00	0.000000	0.000000	8.75	13.00	8.75	13.00	1.25	9.00	0.00	4.75	0.00	1.25	1.00	1.00	4.50	0.50	0.25	1.50	-0.116211	0.168945	1.004395	-5.530000	-0.420000	2.520000	661.00	-0.208517	-0.153849
